pos,corr_resp,thisN,thisTrialN,thisRepN,key_resp.keys,key_resp.corr,key_resp.rt,key_resp.duration,trials.thisRepN,trials.thisTrialN,trials.thisN,trials.thisIndex,trials_2.thisRepN,trials_2.thisTrialN,trials_2.thisN,trials_2.thisIndex,thisRow.t,notes,trial.started,fixation.started,line1.started,line2.started,line3.started,line4.started,fixation.stopped,probe.started,key_resp.started,trial.stopped,trials.key_resp.keys,trials.key_resp.corr,trials.key_resp.rt,trials.key_resp.duration,trials_2.key_resp.keys,trials_2.key_resp.corr,trials_2.key_resp.rt,trials_2.key_resp.duration,participant,session,date,expName,expVersion,psychopyVersion,frameRate,expStart,
-50,x,0,0,0,x,1,0.6015251000062563,None,0,0,0,0,,,,,0.023376099998131394,,0.01258769998094067,0.023376099998131394,1.0092812000075355,1.0092812000075355,1.0092812000075355,1.0092812000075355,1.0251037999987602,2.010885800002143,2.010885800002143,2.801367799984291,x,1,0.6015251000062563,None,,,,,Participant 04,001,2025-10-04_19h29.47.687,Motor sequence task,,2025.1.1,59.944886677217596,2025-10-04 19h36.24.288429 +0530,
150,v,1,1,0,v,1,0.3100389000028372,None,0,1,1,1,,,,,2.807087799999863,,2.8018159000203013,2.807087799999863,3.812568800000008,3.812568800000008,3.812568800000008,3.812568800000008,3.812568800000008,4.812575499992818,4.812575499992818,5.130387099983636,v,1,0.3100389000028372,None,,,,,Participant 04,001,2025-10-04_19h29.47.687,Motor sequence task,,2025.1.1,59.944886677217596,2025-10-04 19h36.24.288429 +0530,
50,c,2,2,0,c,1,0.3208608999848366,None,0,2,2,2,,,,,5.145732500008307,,5.130838299985044,5.145732500008307,6.130036999995355,6.130036999995355,6.130036999995355,6.130036999995355,6.148655100027099,7.133928600000218,7.133928600000218,7.466597100021318,c,1,0.3208608999848366,None,,,,,Participant 04,001,2025-10-04_19h29.47.687,Motor sequence task,,2025.1.1,59.944886677217596,2025-10-04 19h36.24.288429 +0530,
-150,z,3,3,0,z,1,0.2984623000374995,None,0,3,3,3,,,,,7.4820562999811955,,7.467118700034916,7.4820562999811955,8.468177900009323,8.468177900009323,8.468177900009323,8.468177900009323,8.4834912000224,9.468752400018275,9.468752400018275,9.769398500036914,z,1,0.2984623000374995,None,,,,,Participant 04,001,2025-10-04_19h29.47.687,Motor sequence task,,2025.1.1,59.944886677217596,2025-10-04 19h36.24.288429 +0530,
-50,x,4,0,1,x,1,0.292144599952735,None,1,0,4,0,,,,,9.784780799993314,,9.769921900006011,9.784780799993314,10.785649900033604,10.785649900033604,10.785649900033604,10.785649900033604,10.785649900033604,11.770789200032596,11.770789200032596,12.071305899997242,x,1,0.292144599952735,None,,,,,Participant 04,001,2025-10-04_19h29.47.687,Motor sequence task,,2025.1.1,59.944886677217596,2025-10-04 19h36.24.288429 +0530,
150,v,5,1,1,v,1,0.2522758000413887,None,1,1,5,1,,,,,12.086341899994295,,12.07172750000609,12.086341899994295,13.073454099998344,13.073454099998344,13.073454099998344,13.073454099998344,13.088866600010078,14.072394500020891,14.072394500020891,14.340945000003558,v,1,0.2522758000413887,None,,,,,Participant 04,001,2025-10-04_19h29.47.687,Motor sequence task,,2025.1.1,59.944886677217596,2025-10-04 19h36.24.288429 +0530,
50,c,6,2,1,c,1,0.2978669999865815,None,1,2,6,2,,,,,14.357211199996527,,14.341453100030776,14.357211199996527,15.341645599983167,15.341645599983167,15.341645599983167,15.341645599983167,15.357954800012521,16.34142830001656,16.34142830001656,16.642228199983947,c,1,0.2978669999865815,None,,,,,Participant 04,001,2025-10-04_19h29.47.687,Motor sequence task,,2025.1.1,59.944886677217596,2025-10-04 19h36.24.288429 +0530,
-150,z,7,3,1,z,1,0.2831696000066586,None,1,3,7,3,,,,,16.658090199984144,,16.642701300035696,16.658090199984144,17.643128100025933,17.643128100025933,17.643128100025933,17.643128100025933,17.659568100003526,18.643580400035717,18.643580400035717,18.927752799994778,z,1,0.2831696000066586,None,,,,,Participant 04,001,2025-10-04_19h29.47.687,Motor sequence task,,2025.1.1,59.944886677217596,2025-10-04 19h36.24.288429 +0530,
-50,x,8,0,2,x,1,0.38392160000512376,None,2,0,8,0,,,,,18.94451110000955,,18.928148499981035,18.94451110000955,19.92897000000812,19.92897000000812,19.92897000000812,19.92897000000812,19.945482400013134,20.92927660001442,20.92927660001442,21.33068880002247,x,1,0.38392160000512376,None,,,,,Participant 04,001,2025-10-04_19h29.47.687,Motor sequence task,,2025.1.1,59.944886677217596,2025-10-04 19h36.24.288429 +0530,
150,v,9,1,2,v,1,0.36759099998744205,None,2,1,9,1,,,,,21.34678050002549,,21.33126300002914,21.34678050002549,22.33117120002862,22.33117120002862,22.33117120002862,22.33117120002862,22.347320600005332,23.333835099998396,23.333835099998396,23.717356999986805,v,1,0.36759099998744205,None,,,,,Participant 04,001,2025-10-04_19h29.47.687,Motor sequence task,,2025.1.1,59.944886677217596,2025-10-04 19h36.24.288429 +0530,
50,c,10,2,2,c,1,0.14118440001038834,None,2,2,10,2,,,,,23.73360480001429,,23.717848100000992,23.73360480001429,24.71677030000137,24.71677030000137,24.71677030000137,24.71677030000137,24.733584000030532,25.717605900019407,25.717605900019407,25.868432399991434,c,1,0.14118440001038834,None,,,,,Participant 04,001,2025-10-04_19h29.47.687,Motor sequence task,,2025.1.1,59.944886677217596,2025-10-04 19h36.24.288429 +0530,
-150,z,11,3,2,z,1,0.49267010000767186,None,2,3,11,3,,,,,25.885524299985263,,25.868929099990055,25.885524299985263,26.869494099984877,26.869494099984877,26.869494099984877,26.869494099984877,26.886295899981633,27.870554400025867,27.870554400025867,28.3715297000017,z,1,0.49267010000767186,None,,,,,Participant 04,001,2025-10-04_19h29.47.687,Motor sequence task,,2025.1.1,59.944886677217596,2025-10-04 19h36.24.288429 +0530,
-50,x,12,0,3,x,1,0.24604469997575507,None,3,0,12,0,,,,,28.38764660002198,,28.371989500010386,28.38764660002198,29.372063199989498,29.372063199989498,29.372063199989498,29.372063199989498,29.388803499983624,30.372945400013123,30.372945400013123,30.623609200003557,x,1,0.24604469997575507,None,,,,,Participant 04,001,2025-10-04_19h29.47.687,Motor sequence task,,2025.1.1,59.944886677217596,2025-10-04 19h36.24.288429 +0530,
150,v,13,1,3,v,1,0.37448609998682514,None,3,1,13,1,,,,,30.64001420000568,,30.624112299992703,30.64001420000568,31.624483300023712,31.624483300023712,31.624483300023712,31.624483300023712,31.64104060002137,32.62527980003506,32.62527980003506,33.01066929998342,v,1,0.37448609998682514,None,,,,,Participant 04,001,2025-10-04_19h29.47.687,Motor sequence task,,2025.1.1,59.944886677217596,2025-10-04 19h36.24.288429 +0530,
50,c,14,2,3,c,1,0.3178188999881968,None,3,2,14,2,,,,,33.02648569998564,,33.01130640000338,33.02648569998564,34.010302799986675,34.010302799986675,34.010302799986675,34.010302799986675,34.02791750000324,35.011527199996635,35.011527199996635,35.345620699983556,c,1,0.3178188999881968,None,,,,,Participant 04,001,2025-10-04_19h29.47.687,Motor sequence task,,2025.1.1,59.944886677217596,2025-10-04 19h36.24.288429 +0530,
-150,z,15,3,3,z,1,0.2470956000033766,None,3,3,15,3,,,,,35.36242070002481,,35.34607379999943,35.36242070002481,36.346260000020266,36.346260000020266,36.346260000020266,36.346260000020266,36.36333890003152,37.34799430001294,37.34799430001294,37.59820810001111,z,1,0.2470956000033766,None,,,,,Participant 04,001,2025-10-04_19h29.47.687,Motor sequence task,,2025.1.1,59.944886677217596,2025-10-04 19h36.24.288429 +0530,
-50,x,16,0,4,x,1,0.522165100031998,None,4,0,16,0,,,,,37.61502510000719,,37.598594399983995,37.61502510000719,38.59881569998106,38.59881569998106,38.59881569998106,38.59881569998106,38.61668999999529,39.59970409999369,39.59970409999369,40.135117000027094,x,1,0.522165100031998,None,,,,,Participant 04,001,2025-10-04_19h29.47.687,Motor sequence task,,2025.1.1,59.944886677217596,2025-10-04 19h36.24.288429 +0530,
150,v,17,1,4,v,1,0.5215005000354722,None,4,1,17,1,,,,,40.150808200007305,,40.13558599998942,40.150808200007305,41.135370999982115,41.135370999982115,41.135370999982115,41.135370999982115,41.151724499999546,42.13598269998329,42.13598269998329,42.671465300023556,v,1,0.5215005000354722,None,,,,,Participant 04,001,2025-10-04_19h29.47.687,Motor sequence task,,2025.1.1,59.944886677217596,2025-10-04 19h36.24.288429 +0530,
50,c,18,2,4,c,1,0.2936072999727912,None,4,2,18,2,,,,,42.68708050000714,,42.67201209999621,42.68708050000714,43.671782799996436,43.671782799996436,43.671782799996436,43.671782799996436,43.68891640001675,44.67328600003384,44.67328600003384,44.97523929999443,c,1,0.2936072999727912,None,,,,,Participant 04,001,2025-10-04_19h29.47.687,Motor sequence task,,2025.1.1,59.944886677217596,2025-10-04 19h36.24.288429 +0530,
-150,z,19,3,4,z,1,0.39614859997527674,None,4,3,19,3,,,,,44.98862880002707,,44.97574160003569,44.98862880002707,45.99126580002485,45.99126580002485,45.99126580002485,45.99126580002485,45.99126580002485,46.97694970003795,46.97694970003795,47.375484900025185,z,1,0.39614859997527674,None,,,,,Participant 04,001,2025-10-04_19h29.47.687,Motor sequence task,,2025.1.1,59.944886677217596,2025-10-04 19h36.24.288429 +0530,
-50,x,20,0,5,x,1,0.22210310003720224,None,5,0,20,0,,,,,47.39230599999428,,47.37595200003125,47.39230599999428,48.37690929998644,48.37690929998644,48.37690929998644,48.37690929998644,48.39275940001244,49.377788899990264,49.377788899990264,49.611118000000715,x,1,0.22210310003720224,None,,,,,Participant 04,001,2025-10-04_19h29.47.687,Motor sequence task,,2025.1.1,59.944886677217596,2025-10-04 19h36.24.288429 +0530,
150,v,21,1,5,v,1,0.2783557000220753,None,5,1,21,1,,,,,49.62810090003768,,49.61157569999341,49.62810090003768,50.612214100023266,50.612214100023266,50.612214100023266,50.612214100023266,50.63064129999839,51.613715299987234,51.613715299987234,51.89771270001074,v,1,0.2783557000220753,None,,,,,Participant 04,001,2025-10-04_19h29.47.687,Motor sequence task,,2025.1.1,59.944886677217596,2025-10-04 19h36.24.288429 +0530,
50,c,22,2,5,c,1,0.30225430004065856,None,5,2,22,2,,,,,51.91358300001593,,51.898149300017394,51.91358300001593,52.9003909000312,52.9003909000312,52.9003909000312,52.9003909000312,52.9143369999947,53.89865849999478,53.89865849999478,54.21659259998705,c,1,0.30225430004065856,None,,,,,Participant 04,001,2025-10-04_19h29.47.687,Motor sequence task,,2025.1.1,59.944886677217596,2025-10-04 19h36.24.288429 +0530,
-150,z,23,3,5,z,1,0.25106629997026175,None,5,3,23,3,,,,,54.233204999996815,,54.216975199989974,54.233204999996815,55.21770680003101,55.21770680003101,55.21770680003101,55.21770680003101,55.23405249998905,56.2184447000036,56.2184447000036,56.48589880001964,z,1,0.25106629997026175,None,,,,,Participant 04,001,2025-10-04_19h29.47.687,Motor sequence task,,2025.1.1,59.944886677217596,2025-10-04 19h36.24.288429 +0530,
-50,x,24,0,6,x,1,0.22788040002342314,None,6,0,24,0,,,,,56.501953800034244,,56.48637380002765,56.501953800034244,57.48618260002695,57.48618260002695,57.48618260002695,57.48618260002695,57.50289559998782,58.48729319998529,58.48729319998529,58.722047900024336,x,1,0.22788040002342314,None,,,,,Participant 04,001,2025-10-04_19h29.47.687,Motor sequence task,,2025.1.1,59.944886677217596,2025-10-04 19h36.24.288429 +0530,
150,v,25,1,6,v,1,0.35828779998701066,None,6,1,25,1,,,,,58.73824959999183,,58.7226013999898,58.73824959999183,59.722365299996454,59.722365299996454,59.722365299996454,59.722365299996454,59.73843670001952,60.72299430001294,60.72299430001294,61.091386699990835,v,1,0.35828779998701066,None,,,,,Participant 04,001,2025-10-04_19h29.47.687,Motor sequence task,,2025.1.1,59.944886677217596,2025-10-04 19h36.24.288429 +0530,
50,c,26,2,6,c,1,0.31846460001543164,None,6,2,26,2,,,,,61.10687429999234,,61.09185880003497,61.10687429999234,62.091415200033225,62.091415200033225,62.091415200033225,62.091415200033225,62.1084114999976,63.09206070000073,63.09206070000073,63.426381000026595,c,1,0.31846460001543164,None,,,,,Participant 04,001,2025-10-04_19h29.47.687,Motor sequence task,,2025.1.1,59.944886677217596,2025-10-04 19h36.24.288429 +0530,
-150,z,27,3,6,z,1,0.28069879999384284,None,6,3,27,3,,,,,63.442833899986,,63.42684550001286,63.442833899986,64.42748280003434,64.42748280003434,64.42748280003434,64.42748280003434,64.44427089998499,65.42876919999253,65.42876919999253,65.71220670000184,z,1,0.28069879999384284,None,,,,,Participant 04,001,2025-10-04_19h29.47.687,Motor sequence task,,2025.1.1,59.944886677217596,2025-10-04 19h36.24.288429 +0530,
-50,x,28,0,7,x,1,0.30561910005053505,None,7,0,28,0,,,,,65.72864039998967,,65.71268709999276,65.72864039998967,66.71357850002823,66.71357850002823,66.71357850002823,66.71357850002823,66.72975589998532,67.71541080001043,67.71541080001043,68.03209180000704,x,1,0.30561910005053505,None,,,,,Participant 04,001,2025-10-04_19h29.47.687,Motor sequence task,,2025.1.1,59.944886677217596,2025-10-04 19h36.24.288429 +0530,
150,v,29,1,7,v,1,0.4318720999872312,None,7,1,29,1,,,,,68.04861659999005,,68.03260049998062,68.04861659999005,69.03185600001598,69.03185600001598,69.03185600001598,69.03185600001598,69.04905590001727,70.03452879999531,70.03452879999531,70.48436320002656,v,1,0.4318720999872312,None,,,,,Participant 04,001,2025-10-04_19h29.47.687,Motor sequence task,,2025.1.1,59.944886677217596,2025-10-04 19h36.24.288429 +0530,
50,c,30,2,7,c,1,0.25186240003677085,None,7,2,30,2,,,,,70.50082700001076,,70.48486939998111,70.50082700001076,71.48535319999792,71.48535319999792,71.48535319999792,71.48535319999792,71.50153609999688,72.48864669998875,72.48864669998875,72.75353149999864,c,1,0.25186240003677085,None,,,,,Participant 04,001,2025-10-04_19h29.47.687,Motor sequence task,,2025.1.1,59.944886677217596,2025-10-04 19h36.24.288429 +0530,
-150,z,31,3,7,z,1,0.3167253999854438,None,7,3,31,3,,,,,72.77024049998727,,72.75406170001952,72.77024049998727,73.7547352000256,73.7547352000256,73.7547352000256,73.7547352000256,73.7729554999969,74.75685330003034,74.75685330003034,75.08985590003431,z,1,0.3167253999854438,None,,,,,Participant 04,001,2025-10-04_19h29.47.687,Motor sequence task,,2025.1.1,59.944886677217596,2025-10-04 19h36.24.288429 +0530,
-50,x,32,0,8,x,1,0.2975200000219047,None,8,0,32,0,,,,,75.10544549999759,,75.09025990002556,75.10544549999759,76.09022230003029,76.09022230003029,76.09022230003029,76.09022230003029,76.10655520000728,77.09279570000945,77.09279570000945,77.3925568999839,x,1,0.2975200000219047,None,,,,,Participant 04,001,2025-10-04_19h29.47.687,Motor sequence task,,2025.1.1,59.944886677217596,2025-10-04 19h36.24.288429 +0530,
150,v,33,1,8,v,1,0.3243219999712892,None,8,1,33,1,,,,,77.40779389999807,,77.39307639998151,77.40779389999807,78.3928498000023,78.3928498000023,78.3928498000023,78.3928498000023,78.40912830003072,79.39489390002564,79.39489390002564,79.72788500000024,v,1,0.3243219999712892,None,,,,,Participant 04,001,2025-10-04_19h29.47.687,Motor sequence task,,2025.1.1,59.944886677217596,2025-10-04 19h36.24.288429 +0530,
50,c,34,2,8,c,1,0.5223219000035897,None,8,2,34,2,,,,,79.74380810000002,,79.72834610001883,79.74380810000002,80.72834790003253,80.72834790003253,80.72834790003253,80.72834790003253,80.745357399981,81.72988549998263,81.72988549998263,82.26409690000582,c,1,0.5223219000035897,None,,,,,Participant 04,001,2025-10-04_19h29.47.687,Motor sequence task,,2025.1.1,59.944886677217596,2025-10-04 19h36.24.288429 +0530,
-150,z,35,3,8,z,1,0.44896529999095947,None,8,3,35,3,,,,,82.28066920000128,,82.26456610002788,82.28066920000128,83.26467300002696,83.26467300002696,83.26467300002696,83.26467300002696,83.28163909999421,84.26562620000914,84.26562620000914,84.71652970003197,z,1,0.44896529999095947,None,,,,,Participant 04,001,2025-10-04_19h29.47.687,Motor sequence task,,2025.1.1,59.944886677217596,2025-10-04 19h36.24.288429 +0530,
-50,x,36,0,9,x,1,0.3501633999985643,None,9,0,36,0,,,,,84.73352890001843,,84.71699049999006,84.73352890001843,85.71845370001392,85.71845370001392,85.71845370001392,85.71845370001392,85.7351221999852,86.71836090000579,86.71836090000579,87.0710208999808,x,1,0.3501633999985643,None,,,,,Participant 04,001,2025-10-04_19h29.47.687,Motor sequence task,,2025.1.1,59.944886677217596,2025-10-04 19h36.24.288429 +0530,
150,v,37,1,9,v,1,0.1512059000087902,None,9,1,37,1,,,,,87.08696190000046,,87.0715429999982,87.08696190000046,88.08649590000277,88.08649590000277,88.08649590000277,88.08649590000277,88.08649590000277,89.07240230002208,89.07240230002208,89.23991990002105,v,1,0.1512059000087902,None,,,,,Participant 04,001,2025-10-04_19h29.47.687,Motor sequence task,,2025.1.1,59.944886677217596,2025-10-04 19h36.24.288429 +0530,
50,c,38,2,9,c,1,0.33580060000531375,None,9,2,38,2,,,,,89.25540500000352,,89.24042620003456,89.25540500000352,90.25754259998212,90.25754259998212,90.25754259998212,90.25754259998212,90.25754259998212,91.24071939999703,91.24071939999703,91.59044800000265,c,1,0.33580060000531375,None,,,,,Participant 04,001,2025-10-04_19h29.47.687,Motor sequence task,,2025.1.1,59.944886677217596,2025-10-04 19h36.24.288429 +0530,
-150,z,39,3,9,z,1,0.3133699999889359,None,9,3,39,3,,,,,91.60696870001266,,91.59089170000516,91.60696870001266,92.59341570001561,92.59341570001561,92.59341570001561,92.59341570001561,92.60746440000366,93.59205550001934,93.59205550001934,93.91078540001763,z,1,0.3133699999889359,None,,,,,Participant 04,001,2025-10-04_19h29.47.687,Motor sequence task,,2025.1.1,59.944886677217596,2025-10-04 19h36.24.288429 +0530,
-50,x,40,0,10,x,1,0.38316989998565987,None,10,0,40,0,,,,,93.92635090003023,,93.91131049999967,93.92635090003023,94.91203790000873,94.91203790000873,94.91203790000873,94.91203790000873,94.9286243999959,95.9135065000155,95.9135065000155,96.31249769998249,x,1,0.38316989998565987,None,,,,,Participant 04,001,2025-10-04_19h29.47.687,Motor sequence task,,2025.1.1,59.944886677217596,2025-10-04 19h36.24.288429 +0530,
150,v,41,1,10,v,1,0.06539020000491291,None,10,1,41,1,,,,,96.33024480001768,,96.31289230001858,96.33024480001768,97.31652200000826,97.31652200000826,97.31652200000826,97.31652200000826,97.33110210002633,98.31648500001756,98.31648500001756,98.3831046000123,v,1,0.06539020000491291,None,,,,,Participant 04,001,2025-10-04_19h29.47.687,Motor sequence task,,2025.1.1,59.944886677217596,2025-10-04 19h36.24.288429 +0530,
50,c,42,2,10,c,1,0.3419051999808289,None,10,2,42,2,,,,,98.39849440002581,,98.38352239999222,98.39849440002581,99.38386850000825,99.38386850000825,99.38386850000825,99.38386850000825,99.40016010002,100.38457400002517,100.38457400002517,100.73437730001751,c,1,0.3419051999808289,None,,,,,Participant 04,001,2025-10-04_19h29.47.687,Motor sequence task,,2025.1.1,59.944886677217596,2025-10-04 19h36.24.288429 +0530,
-150,z,43,3,10,z,1,0.46310500003164634,None,10,3,43,3,,,,,100.75084019999485,,100.73475340002915,100.75084019999485,101.73662749998039,101.73662749998039,101.73662749998039,101.73662749998039,101.75469550001435,102.73633660003543,102.73633660003543,103.20383760001278,z,1,0.46310500003164634,None,,,,,Participant 04,001,2025-10-04_19h29.47.687,Motor sequence task,,2025.1.1,59.944886677217596,2025-10-04 19h36.24.288429 +0530,
-50,x,44,0,11,x,1,0.306160899985116,None,11,0,44,0,,,,,103.22013400000287,,103.20422369998414,103.22013400000287,104.20433189999312,104.20433189999312,104.20433189999312,104.20433189999312,104.22021010000026,105.20526010001777,105.20526010001777,105.52291220001644,x,1,0.306160899985116,None,,,,,Participant 04,001,2025-10-04_19h29.47.687,Motor sequence task,,2025.1.1,59.944886677217596,2025-10-04 19h36.24.288429 +0530,
150,v,45,1,11,v,1,0.5288466999772936,None,11,1,45,1,,,,,105.53932500001974,,105.52330120000988,105.53932500001974,106.523725200037,106.523725200037,106.523725200037,106.523725200037,106.53989630000433,107.52467210002942,107.52467210002942,108.05868730001384,v,1,0.5288466999772936,None,,,,,Participant 04,001,2025-10-04_19h29.47.687,Motor sequence task,,2025.1.1,59.944886677217596,2025-10-04 19h36.24.288429 +0530,
50,c,46,2,11,c,1,0.3067711999756284,None,11,2,46,2,,,,,108.07578369998373,,108.05915159999859,108.07578369998373,109.06000470003346,109.06000470003346,109.06000470003346,109.06000470003346,109.07618550001644,110.06135889998404,110.06135889998404,110.37835740001174,c,1,0.3067711999756284,None,,,,,Participant 04,001,2025-10-04_19h29.47.687,Motor sequence task,,2025.1.1,59.944886677217596,2025-10-04 19h36.24.288429 +0530,
-150,z,47,3,11,z,1,0.24667270004283637,None,11,3,47,3,,,,,110.39405420003459,,110.37876099999994,110.39405420003459,111.38000499998452,111.38000499998452,111.38000499998452,111.38000499998452,111.39700150000863,112.38164229999529,112.38164229999529,112.63127650000388,z,1,0.24667270004283637,None,,,,,Participant 04,001,2025-10-04_19h29.47.687,Motor sequence task,,2025.1.1,59.944886677217596,2025-10-04 19h36.24.288429 +0530,
-50,x,48,0,12,x,1,0.2855039000278339,None,12,0,48,0,,,,,112.64663999999175,,112.63180490001105,112.64663999999175,113.63150010001846,113.63150010001846,113.63150010001846,113.63150010001846,113.64851430000272,114.63309770001797,114.63309770001797,114.93360699998448,x,1,0.2855039000278339,None,,,,,Participant 04,001,2025-10-04_19h29.47.687,Motor sequence task,,2025.1.1,59.944886677217596,2025-10-04 19h36.24.288429 +0530,
150,v,49,1,12,v,1,0.36153809999814257,None,12,1,49,1,,,,,114.94924059999175,,114.93398690002505,114.94924059999175,115.93369590002112,115.93369590002112,115.93369590002112,115.93369590002112,115.95134279999183,116.93466159998206,116.93466159998206,117.30343979998725,v,1,0.36153809999814257,None,,,,,Participant 04,001,2025-10-04_19h29.47.687,Motor sequence task,,2025.1.1,59.944886677217596,2025-10-04 19h36.24.288429 +0530,
50,c,50,2,12,c,1,0.3476904999697581,None,12,2,50,2,,,,,117.31817739998223,,117.30413730000146,117.31817739998223,118.3041341000353,118.3041341000353,118.3041341000353,118.3041341000353,118.32057879999047,119.30416930001229,119.30416930001229,119.65524880000157,c,1,0.3476904999697581,None,,,,,Participant 04,001,2025-10-04_19h29.47.687,Motor sequence task,,2025.1.1,59.944886677217596,2025-10-04 19h36.24.288429 +0530,
-150,z,51,3,12,z,1,0.3993788999505341,None,12,3,51,3,,,,,119.67128429998411,,119.65562939998927,119.67128429998411,120.6576303000329,120.6576303000329,120.6576303000329,120.6576303000329,120.6719596000039,121.6572479000315,121.6572479000315,122.05792180000572,z,1,0.3993788999505341,None,,,,,Participant 04,001,2025-10-04_19h29.47.687,Motor sequence task,,2025.1.1,59.944886677217596,2025-10-04 19h36.24.288429 +0530,
-50,x,52,0,13,x,1,0.32364949997281656,None,13,0,52,0,,,,,122.07439900003374,,122.05838750000112,122.07439900003374,123.05971589998808,123.05971589998808,123.05971589998808,123.05971589998808,123.07610950001981,124.05955469998298,124.05955469998298,124.393999300024,x,1,0.32364949997281656,None,,,,,Participant 04,001,2025-10-04_19h29.47.687,Motor sequence task,,2025.1.1,59.944886677217596,2025-10-04 19h36.24.288429 +0530,
150,v,53,1,13,v,1,0.3970833999919705,None,13,1,53,1,,,,,124.40950780001003,,124.39446199999657,124.40950780001003,125.39552690001437,125.39552690001437,125.39552690001437,125.39552690001437,125.41166310000699,126.39590910001425,126.39590910001425,126.79704560001846,v,1,0.3970833999919705,None,,,,,Participant 04,001,2025-10-04_19h29.47.687,Motor sequence task,,2025.1.1,59.944886677217596,2025-10-04 19h36.24.288429 +0530,
50,c,54,2,13,c,1,0.30094550002831966,None,13,2,54,2,,,,,126.81260699999984,,126.79753510002047,126.81260699999984,127.79804379999405,127.79804379999405,127.79804379999405,127.79804379999405,127.81502999999793,128.79962770000566,128.79962770000566,129.11616129998583,c,1,0.30094550002831966,None,,,,,Participant 04,001,2025-10-04_19h29.47.687,Motor sequence task,,2025.1.1,59.944886677217596,2025-10-04 19h36.24.288429 +0530,
-150,z,55,3,13,z,1,0.37406269996427,None,13,3,55,3,,,,,129.132826999994,,129.11669860000256,129.132826999994,130.11663960001897,130.11663960001897,130.11663960001897,130.11663960001897,130.1339055999997,131.11699130001944,131.11699130001944,131.5015885999892,z,1,0.37406269996427,None,,,,,Participant 04,001,2025-10-04_19h29.47.687,Motor sequence task,,2025.1.1,59.944886677217596,2025-10-04 19h36.24.288429 +0530,
-50,x,56,0,14,x,1,0.3099590999772772,None,14,0,56,0,,,,,131.5174550000229,,131.5020411000005,131.5174550000229,132.501757799997,132.501757799997,132.501757799997,132.501757799997,132.5206880000187,133.50514239998301,133.50514239998301,133.82104720000643,x,1,0.3099590999772772,None,,,,,Participant 04,001,2025-10-04_19h29.47.687,Motor sequence task,,2025.1.1,59.944886677217596,2025-10-04 19h36.24.288429 +0530,
150,v,57,1,14,v,1,0.2908582999953069,None,14,1,57,1,,,,,133.83720100001665,,133.82162130001234,133.83720100001665,134.82214010000462,134.82214010000462,134.82214010000462,134.82214010000462,134.83854379999684,135.822524600022,135.822524600022,136.12275179999415,v,1,0.2908582999953069,None,,,,,Participant 04,001,2025-10-04_19h29.47.687,Motor sequence task,,2025.1.1,59.944886677217596,2025-10-04 19h36.24.288429 +0530,
50,c,58,2,14,c,1,0.3184165999991819,None,14,2,58,2,,,,,136.13955150003312,,136.1232098999899,136.13955150003312,137.1236435000319,137.1236435000319,137.1236435000319,137.1236435000319,137.14041769999312,138.12511870003073,138.12511870003073,138.45851830003085,c,1,0.3184165999991819,None,,,,,Participant 04,001,2025-10-04_19h29.47.687,Motor sequence task,,2025.1.1,59.944886677217596,2025-10-04 19h36.24.288429 +0530,
-150,z,59,3,14,z,1,0.3016539000091143,None,14,3,59,3,,,,,138.47542339999927,,138.45898520003539,138.47542339999927,139.46151220001047,139.46151220001047,139.46151220001047,139.46151220001047,139.47853130003205,140.4606630000053,140.4606630000053,140.7781369999866,z,1,0.3016539000091143,None,,,,,Participant 04,001,2025-10-04_19h29.47.687,Motor sequence task,,2025.1.1,59.944886677217596,2025-10-04 19h36.24.288429 +0530,
-50,x,60,0,15,x,1,0.2293097999645397,None,15,0,60,0,,,,,140.79414690000704,,140.77858829998877,140.79414690000704,141.78115049999906,141.78115049999906,141.78115049999906,141.78115049999906,141.79520059999777,142.78022090002196,142.78022090002196,143.0138275999925,x,1,0.2293097999645397,None,,,,,Participant 04,001,2025-10-04_19h29.47.687,Motor sequence task,,2025.1.1,59.944886677217596,2025-10-04 19h36.24.288429 +0530,
150,v,61,1,15,v,1,0.2837195000029169,None,15,1,61,1,,,,,143.03024029999506,,143.01420909998706,143.03024029999506,144.01500469999155,144.01500469999155,144.01500469999155,144.01500469999155,144.03260869998485,145.01607409998542,145.01607409998542,145.316496799991,v,1,0.2837195000029169,None,,,,,Participant 04,001,2025-10-04_19h29.47.687,Motor sequence task,,2025.1.1,59.944886677217596,2025-10-04 19h36.24.288429 +0530,
50,c,62,2,15,c,1,0.28089419996831566,None,15,2,62,2,,,,,145.332627900003,,145.316959400021,145.332627900003,146.3172590000322,146.3172590000322,146.3172590000322,146.3172590000322,146.33364560001064,147.31906589999562,147.31906589999562,147.60290870000608,c,1,0.28089419996831566,None,,,,,Participant 04,001,2025-10-04_19h29.47.687,Motor sequence task,,2025.1.1,59.944886677217596,2025-10-04 19h36.24.288429 +0530,
-150,z,63,3,15,z,1,0.31333739997353405,None,15,3,63,3,,,,,147.61863370001083,,147.60350670001935,147.61863370001083,148.60355970001547,148.60355970001547,148.60355970001547,148.60355970001547,148.61980550002772,149.6041059999843,149.6041059999843,149.92221019999124,z,1,0.31333739997353405,None,,,,,Participant 04,001,2025-10-04_19h29.47.687,Motor sequence task,,2025.1.1,59.944886677217596,2025-10-04 19h36.24.288429 +0530,
-50,x,64,0,16,x,1,0.32992819999344647,None,16,0,64,0,,,,,149.93792009999743,,149.92274060001364,149.93792009999743,150.92226299998583,150.92226299998583,150.92226299998583,150.92226299998583,150.93826550000813,151.92317620001268,151.92317620001268,152.25741060002474,x,1,0.32992819999344647,None,,,,,Participant 04,001,2025-10-04_19h29.47.687,Motor sequence task,,2025.1.1,59.944886677217596,2025-10-04 19h36.24.288429 +0530,
150,v,65,1,16,v,1,0.4149767000344582,None,16,1,65,1,,,,,152.2733089000103,,152.25805370003218,152.2733089000103,153.25818210002035,153.25818210002035,153.25818210002035,153.25818210002035,153.27455550001469,154.25844760000473,154.25844760000473,154.67720030003693,v,1,0.4149767000344582,None,,,,,Participant 04,001,2025-10-04_19h29.47.687,Motor sequence task,,2025.1.1,59.944886677217596,2025-10-04 19h36.24.288429 +0530,
50,c,66,2,16,c,1,0.29167949996190146,None,16,2,66,2,,,,,154.6933265000116,,154.67763210000703,154.6933265000116,155.67801540001528,155.67801540001528,155.67801540001528,155.67801540001528,155.69474700000137,156.6783597000176,156.6783597000176,156.97890480002388,c,1,0.29167949996190146,None,,,,,Participant 04,001,2025-10-04_19h29.47.687,Motor sequence task,,2025.1.1,59.944886677217596,2025-10-04 19h36.24.288429 +0530,
-150,z,67,3,16,z,1,0.26427179999882355,None,16,3,67,3,,,,,156.9954371000058,,156.97928309999406,156.9954371000058,157.98098550003488,157.98098550003488,157.98098550003488,157.98098550003488,157.99713580001844,158.98158040002454,158.98158040002454,159.24829590000445,z,1,0.26427179999882355,None,,,,,Participant 04,001,2025-10-04_19h29.47.687,Motor sequence task,,2025.1.1,59.944886677217596,2025-10-04 19h36.24.288429 +0530,
-50,x,68,0,17,x,1,0.33589330001268536,None,17,0,68,0,,,,,159.26512569998158,,159.2486784000066,159.26512569998158,160.24913060001563,160.24913060001563,160.24913060001563,160.24913060001563,160.2667903000256,161.25006839999696,161.25006839999696,161.60081570001785,x,1,0.33589330001268536,None,,,,,Participant 04,001,2025-10-04_19h29.47.687,Motor sequence task,,2025.1.1,59.944886677217596,2025-10-04 19h36.24.288429 +0530,
150,v,69,1,17,v,1,0.25980539998272434,None,17,1,69,1,,,,,161.616664900037,,161.60119519999716,161.616664900037,162.60158260003664,162.60158260003664,162.60158260003664,162.60158260003664,162.61877390003065,163.6045335000381,163.6045335000381,163.8703190999804,v,1,0.25980539998272434,None,,,,,Participant 04,001,2025-10-04_19h29.47.687,Motor sequence task,,2025.1.1,59.944886677217596,2025-10-04 19h36.24.288429 +0530,
50,c,70,2,17,c,1,0.32856599998194724,None,17,2,70,2,,,,,163.8861903999932,,163.87074849999044,163.8861903999932,164.87062890001107,164.87062890001107,164.87062890001107,164.87062890001107,164.88814220001223,165.87192619999405,165.87192619999405,166.20622649998404,c,1,0.32856599998194724,None,,,,,Participant 04,001,2025-10-04_19h29.47.687,Motor sequence task,,2025.1.1,59.944886677217596,2025-10-04 19h36.24.288429 +0530,
-150,z,71,3,17,z,1,0.2992091999622062,None,17,3,71,3,,,,,166.2222885999945,,166.20667400001548,166.2222885999945,167.20676070003537,167.20676070003537,167.20676070003537,167.20676070003537,167.22505429998273,168.20798870001454,168.20798870001454,168.50842379999813,z,1,0.2992091999622062,None,,,,,Participant 04,001,2025-10-04_19h29.47.687,Motor sequence task,,2025.1.1,59.944886677217596,2025-10-04 19h36.24.288429 +0530,
-50,x,72,0,18,x,1,0.286823500005994,None,18,0,72,0,,,,,168.52549959998578,,168.50891630002297,168.52549959998578,169.50985680002486,169.50985680002486,169.50985680002486,169.50985680002486,169.52593689999776,170.51058210001793,170.51058210001793,170.8127326000249,x,1,0.286823500005994,None,,,,,Participant 04,001,2025-10-04_19h29.47.687,Motor sequence task,,2025.1.1,59.944886677217596,2025-10-04 19h36.24.288429 +0530,
150,v,73,1,18,v,1,0.22934270004043356,None,18,1,73,1,,,,,170.82825349998893,,170.81324809999205,170.82825349998893,171.81180580001092,171.81180580001092,171.81180580001092,171.81180580001092,171.8282091000001,172.81261299998732,172.81261299998732,173.04731850000098,v,1,0.22934270004043356,None,,,,,Participant 04,001,2025-10-04_19h29.47.687,Motor sequence task,,2025.1.1,59.944886677217596,2025-10-04 19h36.24.288429 +0530,
50,c,74,2,18,c,1,0.2947606000234373,None,18,2,74,2,,,,,173.06327189999865,,173.04776670003776,173.06327189999865,174.04768860002514,174.04768860002514,174.04768860002514,174.04768860002514,174.06631860003108,175.05028570001014,175.05028570001014,175.34887779998826,c,1,0.2947606000234373,None,,,,,Participant 04,001,2025-10-04_19h29.47.687,Motor sequence task,,2025.1.1,59.944886677217596,2025-10-04 19h36.24.288429 +0530,
-150,z,75,3,18,z,1,0.18223600002238527,None,18,3,75,3,,,,,175.3659631999908,,175.34936699998798,175.3659631999908,176.35054870002205,176.35054870002205,176.35054870002205,176.35054870002205,176.36696389998542,177.35127029998694,177.35127029998694,177.53525409998838,z,1,0.18223600002238527,None,,,,,Participant 04,001,2025-10-04_19h29.47.687,Motor sequence task,,2025.1.1,59.944886677217596,2025-10-04 19h36.24.288429 +0530,
-50,x,76,0,19,x,1,0.2981784999719821,None,19,0,76,0,,,,,177.55136789998505,,177.5356299999985,177.55136789998505,178.5361120000016,178.5361120000016,178.5361120000016,178.5361120000016,178.55259059998207,179.53689550003037,179.53689550003037,179.83778780000284,x,1,0.2981784999719821,None,,,,,Participant 04,001,2025-10-04_19h29.47.687,Motor sequence task,,2025.1.1,59.944886677217596,2025-10-04 19h36.24.288429 +0530,
150,v,77,1,19,v,1,0.2665709999855608,None,19,1,77,1,,,,,179.85449070000323,,179.83828560000984,179.85449070000323,180.83822169998894,180.83822169998894,180.83822169998894,180.83822169998894,180.85566140001174,181.8395245000138,181.8395245000138,182.1072690000292,v,1,0.2665709999855608,None,,,,,Participant 04,001,2025-10-04_19h29.47.687,Motor sequence task,,2025.1.1,59.944886677217596,2025-10-04 19h36.24.288429 +0530,
50,c,78,2,19,c,1,0.36003310000523925,None,19,2,78,2,,,,,182.12329540000064,,182.10764559998643,182.12329540000064,183.10759460000554,183.10759460000554,183.10759460000554,183.10759460000554,183.12486250000075,184.10796980001032,184.10796980001032,184.47622270003194,c,1,0.36003310000523925,None,,,,,Participant 04,001,2025-10-04_19h29.47.687,Motor sequence task,,2025.1.1,59.944886677217596,2025-10-04 19h36.24.288429 +0530,
-150,z,79,3,19,z,1,0.3129264999879524,None,19,3,79,3,,,,,184.49171030003345,,184.47669400001178,184.49171030003345,185.47701199998846,185.47701199998846,185.47701199998846,185.47701199998846,185.49344500002917,186.4788874000078,186.4788874000078,186.7959891000064,z,1,0.3129264999879524,None,,,,,Participant 04,001,2025-10-04_19h29.47.687,Motor sequence task,,2025.1.1,59.944886677217596,2025-10-04 19h36.24.288429 +0530,
-50,x,80,0,20,x,1,0.27856880001490936,None,20,0,80,0,,,,,186.81198559998302,,186.796543799981,186.81198559998302,187.79639420000603,187.79639420000603,187.79639420000603,187.79639420000603,187.81273689999944,188.79768600000534,188.79768600000534,189.08112009998877,x,1,0.27856880001490936,None,,,,,Participant 04,001,2025-10-04_19h29.47.687,Motor sequence task,,2025.1.1,59.944886677217596,2025-10-04 19h36.24.288429 +0530,
150,v,81,1,20,v,1,0.397348599974066,None,20,1,81,1,,,,,189.09759459999623,,189.0815829000203,189.09759459999623,190.08251340000425,190.08251340000425,190.08251340000425,190.08251340000425,190.09908539999742,191.08324270002777,191.08324270002777,191.48477099998854,v,1,0.397348599974066,None,,,,,Participant 04,001,2025-10-04_19h29.47.687,Motor sequence task,,2025.1.1,59.944886677217596,2025-10-04 19h36.24.288429 +0530,
50,c,82,2,20,c,1,0.39250519999768585,None,20,2,82,2,,,,,191.5004868999822,,191.48516270000255,191.5004868999822,192.48497819999466,192.48497819999466,192.48497819999466,192.48497819999466,192.50151810003445,193.48561710002832,193.48561710002832,193.88630850001937,c,1,0.39250519999768585,None,,,,,Participant 04,001,2025-10-04_19h29.47.687,Motor sequence task,,2025.1.1,59.944886677217596,2025-10-04 19h36.24.288429 +0530,
-150,z,83,3,20,z,1,0.243594600004144,None,20,3,83,3,,,,,193.90323280001758,,193.88668930000858,193.90323280001758,194.88774289999856,194.88774289999856,194.88774289999856,194.88774289999856,194.90456270001596,195.8882478000014,195.8882478000014,196.13884179998422,z,1,0.243594600004144,None,,,,,Participant 04,001,2025-10-04_19h29.47.687,Motor sequence task,,2025.1.1,59.944886677217596,2025-10-04 19h36.24.288429 +0530,
-50,x,84,0,21,x,1,0.29846429999452084,None,21,0,84,0,,,,,196.15603690000717,,196.13925670000026,196.15603690000717,197.13959360000445,197.13959360000445,197.13959360000445,197.13959360000445,197.15668770001503,198.14122849999694,198.14122849999694,198.44187260000035,x,1,0.29846429999452084,None,,,,,Participant 04,001,2025-10-04_19h29.47.687,Motor sequence task,,2025.1.1,59.944886677217596,2025-10-04 19h36.24.288429 +0530,
150,v,85,1,21,v,1,0.4406996999750845,None,21,1,85,1,,,,,198.45701170002576,,198.44240400003036,198.45701170002576,199.4414676000015,199.4414676000015,199.4414676000015,199.4414676000015,199.4605282000266,200.44353990000673,200.44353990000673,200.89622480003163,v,1,0.4406996999750845,None,,,,,Participant 04,001,2025-10-04_19h29.47.687,Motor sequence task,,2025.1.1,59.944886677217596,2025-10-04 19h36.24.288429 +0530,
50,c,86,2,21,c,1,0.3349791999789886,None,21,2,86,2,,,,,200.91206090000924,,200.89678910002112,200.91206090000924,201.9134700000286,201.9134700000286,201.9134700000286,201.9134700000286,201.9134700000286,202.89629529998638,202.89629529998638,203.24726030003512,c,1,0.3349791999789886,None,,,,,Participant 04,001,2025-10-04_19h29.47.687,Motor sequence task,,2025.1.1,59.944886677217596,2025-10-04 19h36.24.288429 +0530,
-150,z,87,3,21,z,1,0.2736346999881789,None,21,3,87,3,,,,,203.26878400001442,,203.24766739999177,203.26878400001442,204.24833530001342,204.24833530001342,204.24833530001342,204.24833530001342,204.28214940003818,205.24887810001383,205.24887810001383,205.53283280000323,z,1,0.2736346999881789,None,,,,,Participant 04,001,2025-10-04_19h29.47.687,Motor sequence task,,2025.1.1,59.944886677217596,2025-10-04 19h36.24.288429 +0530,
-50,x,88,0,22,x,1,0.2768936000065878,None,22,0,88,0,,,,,205.54879159998382,,205.5332249000203,205.54879159998382,206.5336091000354,206.5336091000354,206.5336091000354,206.5336091000354,206.5499218000332,207.53450190002332,207.53450190002332,207.818798399996,x,1,0.2768936000065878,None,,,,,Participant 04,001,2025-10-04_19h29.47.687,Motor sequence task,,2025.1.1,59.944886677217596,2025-10-04 19h36.24.288429 +0530,
150,v,89,1,22,v,1,0.4441099999821745,None,22,1,89,1,,,,,207.83463019999908,,207.81926950003253,207.83463019999908,208.8195556999999,208.8195556999999,208.8195556999999,208.8195556999999,208.83571409998694,209.81935810000869,209.81935810000869,210.27118720003637,v,1,0.4441099999821745,None,,,,,Participant 04,001,2025-10-04_19h29.47.687,Motor sequence task,,2025.1.1,59.944886677217596,2025-10-04 19h36.24.288429 +0530,
50,c,90,2,22,c,1,0.28398319997359067,None,22,2,90,2,,,,,210.28728520002915,,210.27162389998557,210.28728520002915,211.27280350000365,211.27280350000365,211.27280350000365,211.27280350000365,211.28873740002746,212.27353380003478,212.27353380003478,212.5735334000201,c,1,0.28398319997359067,None,,,,,Participant 04,001,2025-10-04_19h29.47.687,Motor sequence task,,2025.1.1,59.944886677217596,2025-10-04 19h36.24.288429 +0530,
-150,z,91,3,22,z,1,0.38483400002587587,None,22,3,91,3,,,,,212.5904432000243,,212.57390870002564,212.5904432000243,213.5742770000361,213.5742770000361,213.5742770000361,213.5742770000361,213.5916475999984,214.5753662000061,214.5753662000061,214.97651790000964,z,1,0.38483400002587587,None,,,,,Participant 04,001,2025-10-04_19h29.47.687,Motor sequence task,,2025.1.1,59.944886677217596,2025-10-04 19h36.24.288429 +0530,
-50,x,92,0,23,x,1,0.3417718000127934,None,23,0,92,0,,,,,214.99306260002777,,214.97708650003187,214.99306260002777,215.97852090001106,215.97852090001106,215.97852090001106,215.97852090001106,215.9952185000293,216.97891970002092,216.97891970002092,217.32920039998135,x,1,0.3417718000127934,None,,,,,Participant 04,001,2025-10-04_19h29.47.687,Motor sequence task,,2025.1.1,59.944886677217596,2025-10-04 19h36.24.288429 +0530,
150,v,93,1,23,v,1,0.3691320000216365,None,23,1,93,1,,,,,217.34503450000193,,217.32966049999231,217.34503450000193,218.32955900003435,218.32955900003435,218.32955900003435,218.32955900003435,218.3460519000073,219.3302040999988,219.3302040999988,219.7154880000162,v,1,0.3691320000216365,None,,,,,Participant 04,001,2025-10-04_19h29.47.687,Motor sequence task,,2025.1.1,59.944886677217596,2025-10-04 19h36.24.288429 +0530,
50,c,94,2,23,c,1,0.31435190001502633,None,23,2,94,2,,,,,219.73102910001762,,219.71595129999332,219.73102910001762,220.7156139999861,220.7156139999861,220.7156139999861,220.7156139999861,220.73216180002782,221.71723449998535,221.71723449998535,222.0338968000142,c,1,0.31435190001502633,None,,,,,Participant 04,001,2025-10-04_19h29.47.687,Motor sequence task,,2025.1.1,59.944886677217596,2025-10-04 19h36.24.288429 +0530,
-150,z,95,3,23,z,1,0.3417586999712512,None,23,3,95,3,,,,,222.0496395000373,,222.03432299999986,222.0496395000373,223.03454910003347,223.03454910003347,223.03454910003347,223.03454910003347,223.0515163000091,224.0356579000363,224.0356579000363,224.38656280003488,z,1,0.3417586999712512,None,,,,,Participant 04,001,2025-10-04_19h29.47.687,Motor sequence task,,2025.1.1,59.944886677217596,2025-10-04 19h36.24.288429 +0530,
-50,x,96,0,24,x,1,0.37717870000051335,None,24,0,96,0,,,,,224.4032721000258,,224.38701690000016,224.4032721000258,225.3881143000326,225.3881143000326,225.3881143000326,225.3881143000326,225.4042180000106,226.38872640003683,226.38872640003683,226.772425400035,x,1,0.37717870000051335,None,,,,,Participant 04,001,2025-10-04_19h29.47.687,Motor sequence task,,2025.1.1,59.944886677217596,2025-10-04 19h36.24.288429 +0530,
150,v,97,1,24,v,1,0.3254991000285372,None,24,1,97,1,,,,,226.78934770001797,,226.7728845999809,226.78934770001797,227.77379210002255,227.77379210002255,227.77379210002255,227.77379210002255,227.78999900002964,228.77486040000804,228.77486040000804,229.10855830000946,v,1,0.3254991000285372,None,,,,,Participant 04,001,2025-10-04_19h29.47.687,Motor sequence task,,2025.1.1,59.944886677217596,2025-10-04 19h36.24.288429 +0530,
50,c,98,2,24,c,1,0.2575249000219628,None,24,2,98,2,,,,,229.1247453999822,,229.109012800036,229.1247453999822,230.10854540002765,230.10854540002765,230.10854540002765,230.10854540002765,230.12630120001268,231.1111646000063,231.1111646000063,231.37713730003452,c,1,0.2575249000219628,None,,,,,Participant 04,001,2025-10-04_19h29.47.687,Motor sequence task,,2025.1.1,59.944886677217596,2025-10-04 19h36.24.288429 +0530,
-150,z,99,3,24,z,1,0.2743344000191428,None,24,3,99,3,,,,,231.39448429999175,,231.3776125999866,231.39448429999175,232.37836229999084,232.37836229999084,232.37836229999084,232.37836229999084,232.3963407999836,233.3820979000302,233.3820979000302,233.6645056999987,z,1,0.2743344000191428,None,,,,,Participant 04,001,2025-10-04_19h29.47.687,Motor sequence task,,2025.1.1,59.944886677217596,2025-10-04 19h36.24.288429 +0530,
-150,z,0,0,0,z,1,0.5798391999560408,None,,,,,0,0,0,3,233.6795165000367,,233.67088930000318,233.6795165000367,234.66408180003054,234.66408180003054,234.66408180003054,234.66408180003054,234.68145209999057,235.66568320000079,235.66568320000079,236.2503325000289,,,,,z,1,0.5798391999560408,None,Participant 04,001,2025-10-04_19h29.47.687,Motor sequence task,,2025.1.1,59.944886677217596,2025-10-04 19h36.24.288429 +0530,
-150,z,1,1,1,z,1,0.36492660001385957,None,,,,,1,1,1,3,236.265610500006,,236.250800000038,236.265610500006,237.25004900002386,237.25004900002386,237.25004900002386,237.25004900002386,237.2673594999942,238.25149980001152,238.25149980001152,238.61918989999685,,,,,z,1,0.36492660001385957,None,Participant 04,001,2025-10-04_19h29.47.687,Motor sequence task,,2025.1.1,59.944886677217596,2025-10-04 19h36.24.288429 +0530,
-150,z,2,2,2,z,1,0.5720193000161089,None,,,,,2,2,2,3,238.63535160000902,,238.61999640002614,238.63535160000902,239.6194281000062,239.6194281000062,239.6194281000062,239.6194281000062,239.6368057000218,240.62084480002522,240.62084480002522,241.2055080999853,,,,,z,1,0.5720193000161089,None,Participant 04,001,2025-10-04_19h29.47.687,Motor sequence task,,2025.1.1,59.944886677217596,2025-10-04 19h36.24.288429 +0530,
150,v,3,3,0,v,1,0.6431015999987721,None,,,,,0,3,3,1,241.22127249999903,,241.2059200000367,241.22127249999903,242.20572850003373,242.20572850003373,242.20572850003373,242.20572850003373,242.22253349999664,243.2082196000265,243.2082196000265,243.85814590001246,,,,,v,1,0.6431015999987721,None,Participant 04,001,2025-10-04_19h29.47.687,Motor sequence task,,2025.1.1,59.944886677217596,2025-10-04 19h36.24.288429 +0530,
150,v,4,4,1,v,1,0.4092592000379227,None,,,,,1,4,4,1,243.87445430003572,,243.85853289999068,243.87445430003572,244.8583533000201,244.8583533000201,244.8583533000201,244.8583533000201,244.87572120002005,245.8597279000096,245.8597279000096,246.27794729999732,,,,,v,1,0.4092592000379227,None,Participant 04,001,2025-10-04_19h29.47.687,Motor sequence task,,2025.1.1,59.944886677217596,2025-10-04 19h36.24.288429 +0530,
-150,z,5,5,3,z,1,0.6068936999654397,None,,,,,3,5,5,3,246.2932901000022,,246.27850720001152,246.2932901000022,247.27782080002362,247.27782080002362,247.27782080002362,247.27782080002362,247.29443760000868,248.2791309999884,248.2791309999884,248.8972894999897,,,,,z,1,0.6068936999654397,None,Participant 04,001,2025-10-04_19h29.47.687,Motor sequence task,,2025.1.1,59.944886677217596,2025-10-04 19h36.24.288429 +0530,
-50,x,6,6,0,lalt,0,0.9751776999910362,None,,,,,0,6,6,0,248.91295650001848,,248.89775529998587,248.91295650001848,249.89770750002936,249.89770750002936,249.89770750002936,249.89770750002936,249.91430150001543,250.89991440001177,250.89991440001177,251.88308300002245,,,,,lalt,0,0.9751776999910362,None,Participant 04,001,2025-10-04_19h29.47.687,Motor sequence task,,2025.1.1,59.944886677217596,2025-10-04 19h36.24.288429 +0530,
-50,x,7,7,1,x,1,0.4653944000019692,None,,,,,1,7,7,0,251.90015300002415,,251.88357439998072,251.90015300002415,252.88414450001437,252.88414450001437,252.88414450001437,252.88414450001437,252.90290420001838,253.88535029999912,253.88535029999912,254.35331350000342,,,,,x,1,0.4653944000019692,None,Participant 04,001,2025-10-04_19h29.47.687,Motor sequence task,,2025.1.1,59.944886677217596,2025-10-04 19h36.24.288429 +0530,
-150,z,8,8,4,z,1,0.5198589999927208,None,,,,,4,8,8,3,254.36907290003728,,254.35377430001972,254.36907290003728,255.3539415000123,255.3539415000123,255.3539415000123,255.3539415000123,255.370330500009,256.35473620000994,256.35473620000994,256.88948240003083,,,,,z,1,0.5198589999927208,None,Participant 04,001,2025-10-04_19h29.47.687,Motor sequence task,,2025.1.1,59.944886677217596,2025-10-04 19h36.24.288429 +0530,
50,c,9,9,0,c,1,0.8509742000023834,None,,,,,0,9,9,2,256.90478310000617,,256.89011929999106,256.90478310000617,257.8901688000187,257.8901688000187,257.8901688000187,257.8901688000187,257.9061445000116,258.89071930001955,258.89071930001955,259.7592467000359,,,,,c,1,0.8509742000023834,None,Participant 04,001,2025-10-04_19h29.47.687,Motor sequence task,,2025.1.1,59.944886677217596,2025-10-04 19h36.24.288429 +0530,
-50,x,10,10,2,x,1,0.6465836000279523,None,,,,,2,10,10,0,259.7763726999983,,259.7596462999936,259.7763726999983,260.7595614999882,260.7595614999882,260.7595614999882,260.7595614999882,260.77620030002436,261.7602477000328,261.7602477000328,262.4126408000011,,,,,x,1,0.6465836000279523,None,Participant 04,001,2025-10-04_19h29.47.687,Motor sequence task,,2025.1.1,59.944886677217596,2025-10-04 19h36.24.288429 +0530,
150,v,11,11,2,v,1,0.37268870003754273,None,,,,,2,11,11,1,262.4285204000189,,262.41305279999506,262.4285204000189,263.4129744999809,263.4129744999809,263.4129744999809,263.4129744999809,263.4288588000345,264.41341740003554,264.41341740003554,264.797283300024,,,,,v,1,0.37268870003754273,None,Participant 04,001,2025-10-04_19h29.47.687,Motor sequence task,,2025.1.1,59.944886677217596,2025-10-04 19h36.24.288429 +0530,
-50,x,12,12,3,x,1,0.5030839000246488,None,,,,,3,12,12,0,264.81427400000393,,264.7976721000159,264.81427400000393,265.79825049999636,265.79825049999636,265.79825049999636,265.79825049999636,265.815488799999,266.7996955999988,266.7996955999988,267.31719909998355,,,,,x,1,0.5030839000246488,None,Participant 04,001,2025-10-04_19h29.47.687,Motor sequence task,,2025.1.1,59.944886677217596,2025-10-04 19h36.24.288429 +0530,
50,c,13,13,1,c,1,0.312410100013949,None,,,,,1,13,13,2,267.3329789999989,,267.3176597999991,267.3329789999989,268.31765829998767,268.31765829998767,268.31765829998767,268.31765829998767,268.3344616999966,269.31916290003574,269.31916290003574,269.6359498000238,,,,,c,1,0.312410100013949,None,Participant 04,001,2025-10-04_19h29.47.687,Motor sequence task,,2025.1.1,59.944886677217596,2025-10-04 19h36.24.288429 +0530,
150,v,14,14,3,v,1,0.36393620003946126,None,,,,,3,14,14,1,269.65283440001076,,269.63642550003715,269.65283440001076,270.6370445000357,270.6370445000357,270.6370445000357,270.6370445000357,270.65387300000293,271.638604799984,271.638604799984,272.0054637999856,,,,,v,1,0.36393620003946126,None,Participant 04,001,2025-10-04_19h29.47.687,Motor sequence task,,2025.1.1,59.944886677217596,2025-10-04 19h36.24.288429 +0530,
-50,x,15,15,4,x,1,0.4445175000000745,None,,,,,4,15,15,0,272.0217171999975,,272.0058614999871,272.0217171999975,273.0059755999828,273.0059755999828,273.0059755999828,273.0059755999828,273.0228421000065,274.0078797999886,274.0078797999886,274.4596363999881,,,,,x,1,0.4445175000000745,None,Participant 04,001,2025-10-04_19h29.47.687,Motor sequence task,,2025.1.1,59.944886677217596,2025-10-04 19h36.24.288429 +0530,
-50,x,16,16,5,x,1,0.49764929997036234,None,,,,,5,16,16,0,274.47508760000346,,274.4601548000355,274.47508760000346,275.45855560002383,275.45855560002383,275.45855560002383,275.45855560002383,275.4757631000248,276.4597349999822,276.4597349999822,276.9614381000283,,,,,x,1,0.49764929997036234,None,Participant 04,001,2025-10-04_19h29.47.687,Motor sequence task,,2025.1.1,59.944886677217596,2025-10-04 19h36.24.288429 +0530,
50,c,17,17,2,c,1,0.38333079998847097,None,,,,,2,17,17,2,276.9773167000385,,276.9618441000348,276.9773167000385,277.9620134999859,277.9620134999859,277.9620134999859,277.9620134999859,277.9781531000044,278.9639482999919,278.9639482999919,279.36337560001994,,,,,c,1,0.38333079998847097,None,Participant 04,001,2025-10-04_19h29.47.687,Motor sequence task,,2025.1.1,59.944886677217596,2025-10-04 19h36.24.288429 +0530,
-50,x,18,18,6,x,1,0.5933994999504648,None,,,,,6,18,18,0,279.3802985000075,,279.3639167000074,279.3802985000075,280.36538380000275,280.36538380000275,280.36538380000275,280.36538380000275,280.38175060000503,281.36607869999716,281.36607869999716,281.9662908000173,,,,,x,1,0.5933994999504648,None,Participant 04,001,2025-10-04_19h29.47.687,Motor sequence task,,2025.1.1,59.944886677217596,2025-10-04 19h36.24.288429 +0530,
-150,z,19,19,5,z,1,0.4017914999858476,None,,,,,5,19,19,3,281.98275339999236,,281.9667597000371,281.98275339999236,282.9673194999923,282.9673194999923,282.9673194999923,282.9673194999923,282.9837385999854,283.9698793999851,283.9698793999851,284.38595249998616,,,,,z,1,0.4017914999858476,None,Participant 04,001,2025-10-04_19h29.47.687,Motor sequence task,,2025.1.1,59.944886677217596,2025-10-04 19h36.24.288429 +0530,
150,v,20,20,4,v,1,0.48131419997662306,None,,,,,4,20,20,1,284.4019624000066,,284.386599200021,284.4019624000066,285.3863780000247,285.3863780000247,285.3863780000247,285.3863780000247,285.40342089999467,286.3879001000314,286.3879001000314,286.87365580000915,,,,,v,1,0.48131419997662306,None,Participant 04,001,2025-10-04_19h29.47.687,Motor sequence task,,2025.1.1,59.944886677217596,2025-10-04 19h36.24.288429 +0530,
50,c,21,21,3,c,1,0.46739100001286715,None,,,,,3,21,21,2,286.8890991000226,,286.8741740999976,286.8890991000226,287.88923530001193,287.88923530001193,287.88923530001193,287.88923530001193,287.88923530001193,288.8737328000134,288.8737328000134,289.3419501000317,,,,,c,1,0.46739100001286715,None,Participant 04,001,2025-10-04_19h29.47.687,Motor sequence task,,2025.1.1,59.944886677217596,2025-10-04 19h36.24.288429 +0530,
50,c,22,22,4,c,1,0.44013790000462905,None,,,,,4,22,22,2,289.3577471000026,,289.34247360000154,289.3577471000026,290.3424656999996,290.3424656999996,290.3424656999996,290.3424656999996,290.3587755000335,291.3437114999979,291.3437114999979,291.79405710002175,,,,,c,1,0.44013790000462905,None,Participant 04,001,2025-10-04_19h29.47.687,Motor sequence task,,2025.1.1,59.944886677217596,2025-10-04 19h36.24.288429 +0530,
-50,x,23,23,7,x,1,0.4586008000187576,None,,,,,7,23,23,0,291.8106657000026,,291.79452380002476,291.8106657000026,292.7949707999942,292.7949707999942,292.7949707999942,292.7949707999942,292.8112670999835,293.79555249999976,293.79555249999976,294.26354060001904,,,,,x,1,0.4586008000187576,None,Participant 04,001,2025-10-04_19h29.47.687,Motor sequence task,,2025.1.1,59.944886677217596,2025-10-04 19h36.24.288429 +0530,
150,v,24,24,5,v,1,0.5042570999939926,None,,,,,5,24,24,1,294.2794225999969,,294.2640118999989,294.2794225999969,295.2640854000347,295.2640854000347,295.2640854000347,295.2640854000347,295.2811348999967,296.26434910000535,296.26434910000535,296.78325959999347,,,,,v,1,0.5042570999939926,None,Participant 04,001,2025-10-04_19h29.47.687,Motor sequence task,,2025.1.1,59.944886677217596,2025-10-04 19h36.24.288429 +0530,
50,c,25,25,5,c,1,0.795541699975729,None,,,,,5,25,25,2,296.79894860001514,,296.78372900001705,296.79894860001514,297.7831433999818,297.7831433999818,297.7831433999818,297.7831433999818,297.8004237000132,298.78446430002805,298.78446430002805,299.5862017000327,,,,,c,1,0.795541699975729,None,Participant 04,001,2025-10-04_19h29.47.687,Motor sequence task,,2025.1.1,59.944886677217596,2025-10-04 19h36.24.288429 +0530,
50,c,26,26,6,c,1,0.3841617999714799,None,,,,,6,26,26,2,299.6019553000224,,299.5868458999903,299.6019553000224,300.5884942000266,300.5884942000266,300.5884942000266,300.5884942000266,300.60260350001045,301.58755490003387,301.58755490003387,301.97408790001646,,,,,c,1,0.3841617999714799,None,Participant 04,001,2025-10-04_19h29.47.687,Motor sequence task,,2025.1.1,59.944886677217596,2025-10-04 19h36.24.288429 +0530,
50,c,27,27,7,c,1,0.3601061999797821,None,,,,,7,27,27,2,301.98801899998216,,301.9745559000294,301.98801899998216,302.97553759999573,302.97553759999573,302.97553759999573,302.97553759999573,302.988523899985,303.9749700999819,303.9749700999819,304.3415130000212,,,,,c,1,0.3601061999797821,None,Participant 04,001,2025-10-04_19h29.47.687,Motor sequence task,,2025.1.1,59.944886677217596,2025-10-04 19h36.24.288429 +0530,
150,v,28,28,6,v,1,0.5169811000232585,None,,,,,6,28,28,1,304.3571177999838,,304.3419275000342,304.3571177999838,305.3420589999878,305.3420589999878,305.3420589999878,305.3420589999878,305.3589779000031,306.3423550000298,306.3423550000298,306.86025939998217,,,,,v,1,0.5169811000232585,None,Participant 04,001,2025-10-04_19h29.47.687,Motor sequence task,,2025.1.1,59.944886677217596,2025-10-04 19h36.24.288429 +0530,
50,c,29,29,8,c,1,0.4541828000219539,None,,,,,8,29,29,2,306.8772031000117,,306.86067810002714,306.8772031000117,307.8608609000221,307.8608609000221,307.8608609000221,307.8608609000221,307.87804769998183,308.86232280003605,308.86232280003605,309.3304605000303,,,,,c,1,0.4541828000219539,None,Participant 04,001,2025-10-04_19h29.47.687,Motor sequence task,,2025.1.1,59.944886677217596,2025-10-04 19h36.24.288429 +0530,
-50,x,30,30,8,x,1,0.8623077000374906,None,,,,,8,30,30,0,309.34574339998653,,309.3309488000232,309.34574339998653,310.33064749999903,310.33064749999903,310.33064749999903,310.33064749999903,310.3479113000212,311.33226840000134,311.33226840000134,312.19979320000857,,,,,x,1,0.8623077000374906,None,Participant 04,001,2025-10-04_19h29.47.687,Motor sequence task,,2025.1.1,59.944886677217596,2025-10-04 19h36.24.288429 +0530,
150,v,31,31,7,v,1,0.5917271000216715,None,,,,,7,31,31,1,312.21633730002213,,312.20040750002954,312.21633730002213,313.2005730000092,313.2005730000092,313.2005730000092,313.2005730000092,313.2174393000314,314.20133010001155,314.20133010001155,314.8038208000362,,,,,v,1,0.5917271000216715,None,Participant 04,001,2025-10-04_19h29.47.687,Motor sequence task,,2025.1.1,59.944886677217596,2025-10-04 19h36.24.288429 +0530,
50,c,32,32,9,c,1,0.3723871000111103,None,,,,,9,32,32,2,314.8193576000049,,314.804295799986,314.8193576000049,315.80321029998595,315.80321029998595,315.80321029998595,315.80321029998595,315.81996440002695,316.80422430002363,316.80422430002363,317.1899339000229,,,,,c,1,0.3723871000111103,None,Participant 04,001,2025-10-04_19h29.47.687,Motor sequence task,,2025.1.1,59.944886677217596,2025-10-04 19h36.24.288429 +0530,
50,c,33,33,10,c,1,0.3570953000453301,None,,,,,10,33,33,2,317.20590539998375,,317.1904502999969,317.20590539998375,318.2058667000383,318.2058667000383,318.2058667000383,318.2058667000383,318.2058667000383,319.19148119998863,319.19148119998863,319.55797040002653,,,,,c,1,0.3570953000453301,None,Participant 04,001,2025-10-04_19h29.47.687,Motor sequence task,,2025.1.1,59.944886677217596,2025-10-04 19h36.24.288429 +0530,
-150,z,34,34,6,z,1,0.8289293000125326,None,,,,,6,34,34,3,319.57425980002154,,319.5584414000041,319.57425980002154,320.55822830001125,320.55822830001125,320.55822830001125,320.55822830001125,320.575629900035,321.5592661999981,321.5592661999981,322.3966577000101,,,,,z,1,0.8289293000125326,None,Participant 04,001,2025-10-04_19h29.47.687,Motor sequence task,,2025.1.1,59.944886677217596,2025-10-04 19h36.24.288429 +0530,
-150,z,35,35,7,z,1,0.4454157999716699,None,,,,,7,35,35,3,322.4099537000293,,322.39717740000924,322.4099537000293,323.3962686000159,323.3962686000159,323.3962686000159,323.3962686000159,323.4126000999822,324.396698800032,324.396698800032,324.8467457999941,,,,,z,1,0.4454157999716699,None,Participant 04,001,2025-10-04_19h29.47.687,Motor sequence task,,2025.1.1,59.944886677217596,2025-10-04 19h36.24.288429 +0530,
150,v,36,36,8,v,1,0.5109135999809951,None,,,,,8,36,36,1,324.8635521000251,,324.84721580002224,324.8635521000251,325.849515000009,325.849515000009,325.849515000009,325.849515000009,325.8661868000054,326.84950270003174,326.84950270003174,327.3664465000038,,,,,v,1,0.5109135999809951,None,Participant 04,001,2025-10-04_19h29.47.687,Motor sequence task,,2025.1.1,59.944886677217596,2025-10-04 19h36.24.288429 +0530,
-50,x,37,37,9,x,1,0.7193109999643639,None,,,,,9,37,37,0,327.38266519998433,,327.3668299000128,327.38266519998433,328.36676930001704,328.36676930001704,328.36676930001704,328.36676930001704,328.38427760003833,329.36845200002426,329.36845200002426,330.10363010002766,,,,,x,1,0.7193109999643639,None,Participant 04,001,2025-10-04_19h29.47.687,Motor sequence task,,2025.1.1,59.944886677217596,2025-10-04 19h36.24.288429 +0530,
150,v,38,38,9,v,1,0.5052277999930084,None,,,,,9,38,38,1,330.1189637000207,,330.10413130000234,330.1189637000207,331.10339030000614,331.10339030000614,331.10339030000614,331.10339030000614,331.12037900002906,332.1043362999917,332.1043362999917,332.6220916000311,,,,,v,1,0.5052277999930084,None,Participant 04,001,2025-10-04_19h29.47.687,Motor sequence task,,2025.1.1,59.944886677217596,2025-10-04 19h36.24.288429 +0530,
150,v,39,39,10,v,1,0.47727460000896826,None,,,,,10,39,39,1,332.6388040999882,,332.6225478000124,332.6388040999882,333.62329880002653,333.62329880002653,333.62329880002653,333.62329880002653,333.6398090000148,334.624615000037,334.624615000037,335.10935959999915,,,,,v,1,0.47727460000896826,None,Participant 04,001,2025-10-04_19h29.47.687,Motor sequence task,,2025.1.1,59.944886677217596,2025-10-04 19h36.24.288429 +0530,
50,c,40,40,11,c,1,0.42654650000622496,None,,,,,11,40,40,2,335.1241762000136,,335.10979270003736,335.1241762000136,336.1094307000167,336.1094307000167,336.1094307000167,336.1094307000167,336.12590049998835,337.10983640002087,337.10983640002087,337.54409560002387,,,,,c,1,0.42654650000622496,None,Participant 04,001,2025-10-04_19h29.47.687,Motor sequence task,,2025.1.1,59.944886677217596,2025-10-04 19h36.24.288429 +0530,
50,c,41,41,12,c,1,0.6707830999512225,None,,,,,12,41,41,2,337.5611007999978,,337.5444771000184,337.5611007999978,338.54444730002433,338.54444730002433,338.54444730002433,338.54444730002433,338.5619758000248,339.54595659999177,339.54595659999177,340.2309536000248,,,,,c,1,0.6707830999512225,None,Participant 04,001,2025-10-04_19h29.47.687,Motor sequence task,,2025.1.1,59.944886677217596,2025-10-04 19h36.24.288429 +0530,
-150,z,42,42,8,z,1,0.541208699985873,None,,,,,8,42,42,3,340.2467417999869,,340.2313730000169,340.2467417999869,341.2310071000247,341.2310071000247,341.2310071000247,341.2310071000247,341.24787780002225,342.23311460000696,342.23311460000696,342.7836298000184,,,,,z,1,0.541208699985873,None,Participant 04,001,2025-10-04_19h29.47.687,Motor sequence task,,2025.1.1,59.944886677217596,2025-10-04 19h36.24.288429 +0530,
50,c,43,43,13,c,1,0.5963081999798305,None,,,,,13,43,43,2,342.79971880000085,,342.78420190000907,342.79971880000085,343.7835905000102,343.7835905000102,343.7835905000102,343.7835905000102,343.80068149999715,344.7852587000234,344.7852587000234,345.3858915999881,,,,,c,1,0.5963081999798305,None,Participant 04,001,2025-10-04_19h29.47.687,Motor sequence task,,2025.1.1,59.944886677217596,2025-10-04 19h36.24.288429 +0530,
-50,x,44,44,10,x,1,0.7316327000153251,None,,,,,10,44,44,0,345.40309989999514,,345.3862755000009,345.40309989999514,346.38671610003803,346.38671610003803,346.38671610003803,346.38671610003803,346.4040024999995,347.3884634000133,347.3884634000133,348.12239610002143,,,,,x,1,0.7316327000153251,None,Participant 04,001,2025-10-04_19h29.47.687,Motor sequence task,,2025.1.1,59.944886677217596,2025-10-04 19h36.24.288429 +0530,
-50,x,45,45,11,x,1,0.4831854000221938,None,,,,,11,45,45,0,348.1395645000157,,348.1228049999918,348.1395645000157,349.1231313000317,349.1231313000317,349.1231313000317,349.1231313000317,349.14022559998557,350.12446120003005,350.12446120003005,350.62475930002984,,,,,x,1,0.4831854000221938,None,Participant 04,001,2025-10-04_19h29.47.687,Motor sequence task,,2025.1.1,59.944886677217596,2025-10-04 19h36.24.288429 +0530,
50,c,46,46,14,c,1,0.3507032999768853,None,,,,,14,46,46,2,350.64146369998343,,350.62523790000705,350.64146369998343,351.62602470000274,351.62602470000274,351.62602470000274,351.62602470000274,351.64253790001385,352.6272686999873,352.6272686999873,352.97896620002575,,,,,c,1,0.3507032999768853,None,Participant 04,001,2025-10-04_19h29.47.687,Motor sequence task,,2025.1.1,59.944886677217596,2025-10-04 19h36.24.288429 +0530,
-150,z,47,47,9,z,1,0.43500810000114143,None,,,,,9,47,47,3,352.9943081000238,,352.9794983000029,352.9943081000238,353.9789418000146,353.9789418000146,353.9789418000146,353.9789418000146,353.99492939998163,354.979582400003,354.979582400003,355.430676900025,,,,,z,1,0.43500810000114143,None,Participant 04,001,2025-10-04_19h29.47.687,Motor sequence task,,2025.1.1,59.944886677217596,2025-10-04 19h36.24.288429 +0530,
50,c,48,48,15,c,1,0.45460639998782426,None,,,,,15,48,48,2,355.44685360003496,,355.4311388999922,355.44685360003496,356.43111060000956,356.43111060000956,356.43111060000956,356.43111060000956,356.4478325000382,357.4322456000373,357.4322456000373,357.9002752000233,,,,,c,1,0.45460639998782426,None,Participant 04,001,2025-10-04_19h29.47.687,Motor sequence task,,2025.1.1,59.944886677217596,2025-10-04 19h36.24.288429 +0530,
-150,z,49,49,10,z,1,0.45850680000148714,None,,,,,10,49,49,3,357.916618200019,,357.900666200032,357.916618200019,358.9003002999816,358.9003002999816,358.9003002999816,358.9003002999816,358.91773699998157,359.9012626000331,359.9012626000331,360.3700244000065,,,,,z,1,0.45850680000148714,None,Participant 04,001,2025-10-04_19h29.47.687,Motor sequence task,,2025.1.1,59.944886677217596,2025-10-04 19h36.24.288429 +0530,
-150,z,50,50,11,z,1,0.4026299000252038,None,,,,,11,50,50,3,360.3856826000265,,360.3704389000195,360.3856826000265,361.3704749000026,361.3704749000026,361.3704749000026,361.3704749000026,361.38695770001505,362.3707032999955,362.3707032999955,362.78956300002756,,,,,z,1,0.4026299000252038,None,Participant 04,001,2025-10-04_19h29.47.687,Motor sequence task,,2025.1.1,59.944886677217596,2025-10-04 19h36.24.288429 +0530,
150,v,51,51,11,v,1,0.4690866000019014,None,,,,,11,51,51,1,362.8050567000173,,362.7902306999895,362.8050567000173,363.7898712999886,363.7898712999886,363.7898712999886,363.7898712999886,363.80612740002107,364.79013139999006,364.79013139999006,365.27498270000797,,,,,v,1,0.4690866000019014,None,Participant 04,001,2025-10-04_19h29.47.687,Motor sequence task,,2025.1.1,59.944886677217596,2025-10-04 19h36.24.288429 +0530,
50,c,52,52,16,c,1,0.7679404999944381,None,,,,,16,52,52,2,365.2902827000362,,365.27544739999576,365.2902827000362,366.2749598000082,366.2749598000082,366.2749598000082,366.2749598000082,366.2919471000205,367.2759204999893,367.2759204999893,368.0613412000239,,,,,c,1,0.7679404999944381,None,Participant 04,001,2025-10-04_19h29.47.687,Motor sequence task,,2025.1.1,59.944886677217596,2025-10-04 19h36.24.288429 +0530,
150,v,53,53,12,v,1,0.33250720001524314,None,,,,,12,53,53,1,368.07692640001187,,368.06174000003375,368.07692640001187,369.06181500002276,369.06181500002276,369.06181500002276,369.06181500002276,369.07843410002533,370.06276820000494,370.06276820000494,370.3978098999942,,,,,v,1,0.33250720001524314,None,Participant 04,001,2025-10-04_19h29.47.687,Motor sequence task,,2025.1.1,59.944886677217596,2025-10-04 19h36.24.288429 +0530,
-150,z,54,54,12,z,1,0.5683161000488326,None,,,,,12,54,54,3,370.4135882999981,,370.39829139999347,370.4135882999981,371.39908140001353,371.39908140001353,371.39908140001353,371.39908140001353,371.41549470002064,372.39888059999794,372.39888059999794,372.9833046999993,,,,,z,1,0.5683161000488326,None,Participant 04,001,2025-10-04_19h29.47.687,Motor sequence task,,2025.1.1,59.944886677217596,2025-10-04 19h36.24.288429 +0530,
-150,z,55,55,13,z,1,0.641122400003951,None,,,,,13,55,55,3,372.99930700002005,,372.98377669998445,372.99930700002005,373.98341210000217,373.98341210000217,373.98341210000217,373.98341210000217,373.9999566000188,374.9849522000295,374.9849522000295,375.63618750002934,,,,,z,1,0.641122400003951,None,Participant 04,001,2025-10-04_19h29.47.687,Motor sequence task,,2025.1.1,59.944886677217596,2025-10-04 19h36.24.288429 +0530,
150,v,56,56,13,v,1,0.4128986999858171,None,,,,,13,56,56,1,375.65321240003686,,375.63682240003254,375.65321240003686,376.6366750000161,376.6366750000161,376.6366750000161,376.6366750000161,376.65308409999125,377.6389898000052,377.6389898000052,378.05678640003316,,,,,v,1,0.4128986999858171,None,Participant 04,001,2025-10-04_19h29.47.687,Motor sequence task,,2025.1.1,59.944886677217596,2025-10-04 19h36.24.288429 +0530,
-150,z,57,57,14,z,1,0.40695179998874664,None,,,,,14,57,57,3,378.0723583000363,,378.0573061000323,378.0723583000363,379.056003900012,379.056003900012,379.056003900012,379.056003900012,379.0727520000073,380.05730719998246,380.05730719998246,380.47471839998616,,,,,z,1,0.40695179998874664,None,Participant 04,001,2025-10-04_19h29.47.687,Motor sequence task,,2025.1.1,59.944886677217596,2025-10-04 19h36.24.288429 +0530,
-50,x,58,58,12,x,1,0.381035000027623,None,,,,,12,58,58,0,380.4911179000046,,380.47506409999914,380.4911179000046,381.4749225000269,381.4749225000269,381.4749225000269,381.4749225000269,381.49183780001476,382.47594010003377,382.47594010003377,382.86046510003507,,,,,x,1,0.381035000027623,None,Participant 04,001,2025-10-04_19h29.47.687,Motor sequence task,,2025.1.1,59.944886677217596,2025-10-04 19h36.24.288429 +0530,
-50,x,59,59,13,x,1,0.4068709000130184,None,,,,,13,59,59,0,382.8763467000099,,382.8608516000095,382.8763467000099,383.8608339999919,383.8608339999919,383.8608339999919,383.8608339999919,383.8783430000185,384.8625817000284,384.8625817000284,385.27983260003384,,,,,x,1,0.4068709000130184,None,Participant 04,001,2025-10-04_19h29.47.687,Motor sequence task,,2025.1.1,59.944886677217596,2025-10-04 19h36.24.288429 +0530,
-150,z,60,60,15,z,1,0.7004965999512933,None,,,,,15,60,60,3,385.2967796000303,,385.2804097000044,385.2967796000303,386.28055600001244,386.28055600001244,386.28055600001244,386.28055600001244,386.2978050999809,387.2822498999885,387.2822498999885,387.9998507000273,,,,,z,1,0.7004965999512933,None,Participant 04,001,2025-10-04_19h29.47.687,Motor sequence task,,2025.1.1,59.944886677217596,2025-10-04 19h36.24.288429 +0530,
-50,x,61,61,14,x,1,0.36378569999942556,None,,,,,14,61,61,0,388.01596610003617,,388.0002305000089,388.01596610003617,389.00048660003813,389.00048660003813,389.00048660003813,389.00048660003813,389.01671589998296,390.0013365999912,390.0013365999912,390.36884110001847,,,,,x,1,0.36378569999942556,None,Participant 04,001,2025-10-04_19h29.47.687,Motor sequence task,,2025.1.1,59.944886677217596,2025-10-04 19h36.24.288429 +0530,
-50,x,62,62,15,x,1,0.6055265999748372,None,,,,,15,62,62,0,390.38500720000593,,390.369247500028,390.38500720000593,391.37042970000766,391.37042970000766,391.37042970000766,391.37042970000766,391.3865289000096,392.37109149998287,392.37109149998287,392.98827460000757,,,,,x,1,0.6055265999748372,None,Participant 04,001,2025-10-04_19h29.47.687,Motor sequence task,,2025.1.1,59.944886677217596,2025-10-04 19h36.24.288429 +0530,
150,v,63,63,14,v,1,0.45921860000817105,None,,,,,14,63,63,1,393.0047019000049,,392.9889273000299,393.0047019000049,393.9899893000256,393.9899893000256,393.9899893000256,393.9899893000256,394.0062029000255,394.99057449999964,394.99057449999964,395.4602404999896,,,,,v,1,0.45921860000817105,None,Participant 04,001,2025-10-04_19h29.47.687,Motor sequence task,,2025.1.1,59.944886677217596,2025-10-04 19h36.24.288429 +0530,
-50,x,64,64,16,x,1,0.753456600010395,None,,,,,16,64,64,0,395.47399580001365,,395.46079530002316,395.47399580001365,396.4577714999905,396.4577714999905,396.4577714999905,396.4577714999905,396.47540609998396,397.4612615000224,397.4612615000224,398.2283649999881,,,,,x,1,0.753456600010395,None,Participant 04,001,2025-10-04_19h29.47.687,Motor sequence task,,2025.1.1,59.944886677217596,2025-10-04 19h36.24.288429 +0530,
-150,z,65,65,16,z,1,0.5008150999783538,None,,,,,16,65,65,3,398.2440951000317,,398.22876209998503,398.2440951000317,399.2285719999927,399.2285719999927,399.2285719999927,399.2285719999927,399.2448263000115,400.229513600003,400.229513600003,400.7467959999922,,,,,z,1,0.5008150999783538,None,Participant 04,001,2025-10-04_19h29.47.687,Motor sequence task,,2025.1.1,59.944886677217596,2025-10-04 19h36.24.288429 +0530,
-50,x,66,66,17,x,1,0.47149339999305084,None,,,,,17,66,66,0,400.76298870000755,,400.747184100037,400.76298870000755,401.74823800002923,401.74823800002923,401.74823800002923,401.74823800002923,401.7646719000186,402.7492644999875,402.7492644999875,403.23338990000775,,,,,x,1,0.47149339999305084,None,Participant 04,001,2025-10-04_19h29.47.687,Motor sequence task,,2025.1.1,59.944886677217596,2025-10-04 19h36.24.288429 +0530,
50,c,67,67,17,c,1,1.0781645000097342,None,,,,,17,67,67,2,403.2489395000157,,403.23385120002786,403.2489395000157,404.23342870001215,404.23342870001215,404.23342870001215,404.23342870001215,404.25018299999647,405.2357633000356,405.2357633000356,406.31994290003786,,,,,c,1,1.0781645000097342,None,Participant 04,001,2025-10-04_19h29.47.687,Motor sequence task,,2025.1.1,59.944886677217596,2025-10-04 19h36.24.288429 +0530,
-50,x,68,68,18,x,1,0.5817336000036448,None,,,,,18,68,68,0,406.33581680001225,,406.3205883000046,406.33581680001225,407.3202543000225,407.3202543000225,407.3202543000225,407.3202543000225,407.33737979998114,408.32229809998535,408.32229809998535,408.9056480000145,,,,,x,1,0.5817336000036448,None,Participant 04,001,2025-10-04_19h29.47.687,Motor sequence task,,2025.1.1,59.944886677217596,2025-10-04 19h36.24.288429 +0530,
-150,z,69,69,17,z,1,1.0903611999819987,None,,,,,17,69,69,3,408.9224716000026,,408.9060427999939,408.9224716000026,409.9064323999919,409.9064323999919,409.9064323999919,409.9064323999919,409.92322880000575,410.9085254999809,410.9085254999809,412.0095657000202,,,,,z,1,1.0903611999819987,None,Participant 04,001,2025-10-04_19h29.47.687,Motor sequence task,,2025.1.1,59.944886677217596,2025-10-04 19h36.24.288429 +0530,
-50,x,70,70,19,x,1,0.4650734000024386,None,,,,,19,70,70,0,412.0258606999996,,412.0099749999936,412.0258606999996,413.01050979999127,413.01050979999127,413.01050979999127,413.01050979999127,413.026626100007,414.0112887999858,414.0112887999858,414.47890049999114,,,,,x,1,0.4650734000024386,None,Participant 04,001,2025-10-04_19h29.47.687,Motor sequence task,,2025.1.1,59.944886677217596,2025-10-04 19h36.24.288429 +0530,
-50,x,71,71,20,x,1,0.4539138000109233,None,,,,,20,71,71,0,414.49472309998237,,414.47941919998266,414.49472309998237,415.4789966000244,415.4789966000244,415.4789966000244,415.4789966000244,415.4961706000031,416.480955200037,416.480955200037,416.94763700000476,,,,,x,1,0.4539138000109233,None,Participant 04,001,2025-10-04_19h29.47.687,Motor sequence task,,2025.1.1,59.944886677217596,2025-10-04 19h36.24.288429 +0530,
150,v,72,72,15,v,1,0.6773808000143617,None,,,,,15,72,72,1,416.9647740999935,,416.94802050001454,416.9647740999935,417.94851810002,417.94851810002,417.94851810002,417.94851810002,417.96540430001915,418.9497331000166,418.9497331000166,419.6337222000002,,,,,v,1,0.6773808000143617,None,Participant 04,001,2025-10-04_19h29.47.687,Motor sequence task,,2025.1.1,59.944886677217596,2025-10-04 19h36.24.288429 +0530,
150,v,73,73,16,v,1,1.714957799995318,None,,,,,16,73,73,1,419.65014079998946,,419.6342291000183,419.65014079998946,420.63455670000985,420.63455670000985,420.63455670000985,420.63455670000985,420.65247510001063,421.6386902999948,421.6386902999948,423.3548388000345,,,,,v,1,1.714957799995318,None,Participant 04,001,2025-10-04_19h29.47.687,Motor sequence task,,2025.1.1,59.944886677217596,2025-10-04 19h36.24.288429 +0530,
150,v,74,74,17,v,1,0.4492483999929391,None,,,,,17,74,74,1,423.37149150000187,,423.35524250002345,423.37149150000187,424.35576589999255,424.35576589999255,424.35576589999255,424.35576589999255,424.37249979999615,425.35670820000814,425.35670820000814,425.80747440003324,,,,,v,1,0.4492483999929391,None,Participant 04,001,2025-10-04_19h29.47.687,Motor sequence task,,2025.1.1,59.944886677217596,2025-10-04 19h36.24.288429 +0530,
-150,z,75,75,18,z,1,1.2287076999782585,None,,,,,18,75,75,3,425.8243079999811,,425.8079577999888,425.8243079999811,426.80838820000645,426.80838820000645,426.80838820000645,426.80838820000645,426.8251198999933,427.81010150001384,427.81010150001384,429.04483510000864,,,,,z,1,1.2287076999782585,None,Participant 04,001,2025-10-04_19h29.47.687,Motor sequence task,,2025.1.1,59.944886677217596,2025-10-04 19h36.24.288429 +0530,
150,v,76,76,18,v,1,0.6063905999762937,None,,,,,18,76,76,1,429.06104450003477,,429.04532149998704,429.06104450003477,430.0451844999916,430.0451844999916,430.0451844999916,430.0451844999916,430.0620717999991,431.0475308999885,431.0475308999885,431.66416819998994,,,,,v,1,0.6063905999762937,None,Participant 04,001,2025-10-04_19h29.47.687,Motor sequence task,,2025.1.1,59.944886677217596,2025-10-04 19h36.24.288429 +0530,
-150,z,77,77,19,z,1,0.5500209999736398,None,,,,,19,77,77,3,431.6801448999904,,431.66464450000785,431.6801448999904,432.66474330000347,432.66474330000347,432.66474330000347,432.66474330000347,432.6823524000356,433.66690350003773,433.66690350003773,434.2334972000099,,,,,z,1,0.5500209999736398,None,Participant 04,001,2025-10-04_19h29.47.687,Motor sequence task,,2025.1.1,59.944886677217596,2025-10-04 19h36.24.288429 +0530,
50,c,78,78,18,c,1,0.6111796000041068,None,,,,,18,78,78,2,434.2500209999853,,434.2338741000276,434.2500209999853,435.23442350002006,435.23442350002006,435.23442350002006,435.23442350002006,435.2515986000071,436.23617280001054,436.23617280001054,436.853166099987,,,,,c,1,0.6111796000041068,None,Participant 04,001,2025-10-04_19h29.47.687,Motor sequence task,,2025.1.1,59.944886677217596,2025-10-04 19h36.24.288429 +0530,
150,v,79,79,19,v,1,0.3528124999720603,None,,,,,19,79,79,1,436.87003960000584,,436.8535567999934,436.87003960000584,437.8548114000005,437.8548114000005,437.8548114000005,437.8548114000005,437.8707127000089,438.8567624000134,438.8567624000134,439.22274490003474,,,,,v,1,0.3528124999720603,None,Participant 04,001,2025-10-04_19h29.47.687,Motor sequence task,,2025.1.1,59.944886677217596,2025-10-04 19h36.24.288429 +0530,
150,v,80,80,20,v,1,0.44446679996326566,None,,,,,20,80,80,1,439.23896049999166,,439.2232950000325,439.23896049999166,440.22436350001954,440.22436350001954,440.22436350001954,440.22436350001954,440.2419023999828,441.2249442000175,441.2249442000175,441.67524220002815,,,,,v,1,0.44446679996326566,None,Participant 04,001,2025-10-04_19h29.47.687,Motor sequence task,,2025.1.1,59.944886677217596,2025-10-04 19h36.24.288429 +0530,
-150,z,81,81,20,z,1,0.6021589000010863,None,,,,,20,81,81,3,441.69159729999956,,441.675771899987,441.69159729999956,442.6758409999893,442.6758409999893,442.6758409999893,442.6758409999893,442.6927180000348,443.6796660000109,443.6796660000109,444.29495070001576,,,,,z,1,0.6021589000010863,None,Participant 04,001,2025-10-04_19h29.47.687,Motor sequence task,,2025.1.1,59.944886677217596,2025-10-04 19h36.24.288429 +0530,
50,c,82,82,19,c,1,0.6384744999813847,None,,,,,19,82,82,2,444.31140810000943,,444.2953330000164,444.31140810000943,445.29540820000693,445.29540820000693,445.29540820000693,445.29540820000693,445.3125719000236,446.2965576000279,446.2965576000279,446.94781969999894,,,,,c,1,0.6384744999813847,None,Participant 04,001,2025-10-04_19h29.47.687,Motor sequence task,,2025.1.1,59.944886677217596,2025-10-04 19h36.24.288429 +0530,
-150,z,83,83,21,z,1,0.7344598999479786,None,,,,,21,83,83,3,446.9638549000374,,446.948301299999,446.9638549000374,447.94915240001865,447.94915240001865,447.94915240001865,447.94915240001865,447.9653909000335,448.95004920003703,448.95004920003703,449.7006912000361,,,,,z,1,0.7344598999479786,None,Participant 04,001,2025-10-04_19h29.47.687,Motor sequence task,,2025.1.1,59.944886677217596,2025-10-04 19h36.24.288429 +0530,
-50,x,84,84,21,x,1,0.6592823999817483,None,,,,,21,84,84,0,449.7169100000174,,449.7010897999862,449.7169100000174,450.70277400000487,450.70277400000487,450.70277400000487,450.70277400000487,450.71880109998165,451.7028130000108,451.7028130000108,452.3708906000247,,,,,x,1,0.6592823999817483,None,Participant 04,001,2025-10-04_19h29.47.687,Motor sequence task,,2025.1.1,59.944886677217596,2025-10-04 19h36.24.288429 +0530,
50,c,85,85,20,c,1,0.5822913000010885,None,,,,,20,85,85,2,452.3864525000099,,452.37143100000685,452.3864525000099,453.3730743000051,453.3730743000051,453.3730743000051,453.3730743000051,453.38722879998386,454.37196860002587,454.37196860002587,454.9576958999969,,,,,c,1,0.5822913000010885,None,Participant 04,001,2025-10-04_19h29.47.687,Motor sequence task,,2025.1.1,59.944886677217596,2025-10-04 19h36.24.288429 +0530,
-150,z,86,86,22,z,1,0.41344949998892844,None,,,,,22,86,86,3,454.9734351999941,,454.9581760999863,454.9734351999941,455.95862570003374,455.95862570003374,455.95862570003374,455.95862570003374,455.9754988999921,456.960018999991,456.960018999991,457.37610769999446,,,,,z,1,0.41344949998892844,None,Participant 04,001,2025-10-04_19h29.47.687,Motor sequence task,,2025.1.1,59.944886677217596,2025-10-04 19h36.24.288429 +0530,
150,v,87,87,21,v,1,0.6116930000134744,None,,,,,21,87,87,1,457.39256840001326,,457.37659290002193,457.39256840001326,458.3758925999864,458.3758925999864,458.3758925999864,458.3758925999864,458.39364680001745,459.3776403000229,459.3776403000229,459.9956896000076,,,,,v,1,0.6116930000134744,None,Participant 04,001,2025-10-04_19h29.47.687,Motor sequence task,,2025.1.1,59.944886677217596,2025-10-04 19h36.24.288429 +0530,
50,c,88,88,21,c,1,0.41870670003117993,None,,,,,21,88,88,2,460.0118630999932,,459.99608509999234,460.0118630999932,460.99576940003317,460.99576940003317,460.99576940003317,460.99576940003317,461.0126923000207,461.9971511000185,461.9971511000185,462.431507900008,,,,,c,1,0.41870670003117993,None,Participant 04,001,2025-10-04_19h29.47.687,Motor sequence task,,2025.1.1,59.944886677217596,2025-10-04 19h36.24.288429 +0530,
-150,z,89,89,23,z,1,0.43321250000735745,None,,,,,23,89,89,3,462.4483602999826,,462.4319787999848,462.4483602999826,463.43229530000826,463.43229530000826,463.43229530000826,463.43229530000826,463.4485158000025,464.43440110003576,464.43440110003576,464.8837799000321,,,,,z,1,0.43321250000735745,None,Participant 04,001,2025-10-04_19h29.47.687,Motor sequence task,,2025.1.1,59.944886677217596,2025-10-04 19h36.24.288429 +0530,
50,c,90,90,22,c,1,0.38224839995382354,None,,,,,22,90,90,2,464.899891100009,,464.88424680003664,464.899891100009,465.8851353999926,465.8851353999926,465.8851353999926,465.8851353999926,465.9015388999833,466.8873430000385,466.8873430000385,467.2872589000035,,,,,c,1,0.38224839995382354,None,Participant 04,001,2025-10-04_19h29.47.687,Motor sequence task,,2025.1.1,59.944886677217596,2025-10-04 19h36.24.288429 +0530,
50,c,91,91,23,c,1,0.5364365000277758,None,,,,,23,91,91,2,467.3034881000058,,467.287721300032,467.3034881000058,468.2901481000008,468.2901481000008,468.2901481000008,468.2901481000008,468.30579210002907,469.288417200034,469.288417200034,469.8398346999893,,,,,c,1,0.5364365000277758,None,Participant 04,001,2025-10-04_19h29.47.687,Motor sequence task,,2025.1.1,59.944886677217596,2025-10-04 19h36.24.288429 +0530,
50,c,92,92,24,c,1,0.4191237000050023,None,,,,,24,92,92,2,469.855838700023,,469.8402337000007,469.855838700023,470.8408494000323,470.8408494000323,470.8408494000323,470.8408494000323,470.85696230002213,471.84147949999897,471.84147949999897,472.2613689000136,,,,,c,1,0.4191237000050023,None,Participant 04,001,2025-10-04_19h29.47.687,Motor sequence task,,2025.1.1,59.944886677217596,2025-10-04 19h36.24.288429 +0530,
-50,x,93,93,22,x,1,0.7839564999449067,None,,,,,22,93,93,0,472.27494209998986,,472.26184540003305,472.27494209998986,473.260618100001,473.260618100001,473.260618100001,473.260618100001,473.27818940003635,474.2599821999902,474.2599821999902,475.0459079000284,,,,,x,1,0.7839564999449067,None,Participant 04,001,2025-10-04_19h29.47.687,Motor sequence task,,2025.1.1,59.944886677217596,2025-10-04 19h36.24.288429 +0530,
150,v,94,94,22,v,1,0.6293489999952726,None,,,,,22,94,94,1,475.0622643000097,,475.04638180002803,475.0622643000097,476.04596860002493,476.04596860002493,476.04596860002493,476.04596860002493,476.06545090000145,477.04688779998105,477.04688779998105,477.6815040000365,,,,,v,1,0.6293489999952726,None,Participant 04,001,2025-10-04_19h29.47.687,Motor sequence task,,2025.1.1,59.944886677217596,2025-10-04 19h36.24.288429 +0530,
150,v,95,95,23,v,1,0.9588234999682754,None,,,,,23,95,95,1,477.69776459998684,,477.6819910000195,477.69776459998684,478.68348780000815,478.68348780000815,478.68348780000815,478.68348780000815,478.6995314999949,479.68306170002325,479.68306170002325,480.65121059998637,,,,,v,1,0.9588234999682754,None,Participant 04,001,2025-10-04_19h29.47.687,Motor sequence task,,2025.1.1,59.944886677217596,2025-10-04 19h36.24.288429 +0530,
-150,z,96,96,24,z,1,0.7206818999839015,None,,,,,24,96,96,3,480.66744160000235,,480.6516163999913,480.66744160000235,481.65253020002274,481.65253020002274,481.65253020002274,481.65253020002274,481.6685048000072,482.6533112000325,482.6533112000325,483.38802549999673,,,,,z,1,0.7206818999839015,None,Participant 04,001,2025-10-04_19h29.47.687,Motor sequence task,,2025.1.1,59.944886677217596,2025-10-04 19h36.24.288429 +0530,
150,v,97,97,24,v,1,0.496792399964761,None,,,,,24,97,97,1,483.4038048000075,,483.3884248000104,483.4038048000075,484.3888811999932,484.3888811999932,484.3888811999932,484.3888811999932,484.4051242999849,485.3891665000119,485.3891665000119,485.8903828000184,,,,,v,1,0.496792399964761,None,Participant 04,001,2025-10-04_19h29.47.687,Motor sequence task,,2025.1.1,59.944886677217596,2025-10-04 19h36.24.288429 +0530,
-50,x,98,98,23,x,1,0.7887540999799967,None,,,,,23,98,98,0,485.9066578000202,,485.89085199998226,485.9066578000202,486.8908201000304,486.8908201000304,486.8908201000304,486.8908201000304,486.90776209998876,487.89290889998665,487.89290889998665,488.69436830002815,,,,,x,1,0.7887540999799967,None,Participant 04,001,2025-10-04_19h29.47.687,Motor sequence task,,2025.1.1,59.944886677217596,2025-10-04 19h36.24.288429 +0530,
-50,x,99,99,24,x,1,0.8182170999934897,None,,,,,24,99,99,0,488.7098508999916,,488.69491419999395,488.7098508999916,489.6958073999849,489.6958073999849,489.6958073999849,489.6958073999849,489.7119727000245,490.69587739999406,490.69587739999406,491.52953529998194,,,,,x,1,0.8182170999934897,None,Participant 04,001,2025-10-04_19h29.47.687,Motor sequence task,,2025.1.1,59.944886677217596,2025-10-04 19h36.24.288429 +0530,
