pos,corr_resp,thisN,thisTrialN,thisRepN,key_resp.keys,key_resp.corr,key_resp.rt,key_resp.duration,trials.thisRepN,trials.thisTrialN,trials.thisN,trials.thisIndex,trials_2.thisRepN,trials_2.thisTrialN,trials_2.thisN,trials_2.thisIndex,thisRow.t,notes,trial.started,fixation.started,line1.started,line2.started,line3.started,line4.started,fixation.stopped,probe.started,key_resp.started,trial.stopped,trials.key_resp.keys,trials.key_resp.corr,trials.key_resp.rt,trials.key_resp.duration,trials_2.key_resp.keys,trials_2.key_resp.corr,trials_2.key_resp.rt,trials_2.key_resp.duration,participant,session,date,expName,expVersion,psychopyVersion,frameRate,expStart,
-50,x,0,0,0,x,1,0.7786940999794751,None,0,0,0,0,,,,,0.01750369998626411,,0.01262479997240007,0.01750369998626411,1.0098365999874659,1.0098365999874659,1.0098365999874659,1.0098365999874659,1.0256309999967925,2.0108274000231177,2.0108274000231177,2.9331277000019327,x,1,0.7786940999794751,None,,,,,Participant 03,001,2025-10-03_20h30.41.100,Motor sequence task,,2025.1.1,59.943197818903734,2025-10-03 20h50.21.138034 +0530,
150,v,1,1,0,v,1,0.6206961999996565,None,0,1,1,1,,,,,2.9384822999709286,,2.933473100012634,2.9384822999709286,3.945531299978029,3.945531299978029,3.945531299978029,3.945531299978029,3.945531299978029,4.947454800014384,4.947454800014384,5.581788800016511,v,1,0.6206961999996565,None,,,,,Participant 03,001,2025-10-03_20h30.41.100,Motor sequence task,,2025.1.1,59.943197818903734,2025-10-03 20h50.21.138034 +0530,
50,c,2,2,0,c,1,0.36514700000407174,None,0,2,2,2,,,,,5.59805889998097,,5.582208400010131,5.59805889998097,6.582209300016984,6.582209300016984,6.582209300016984,6.582209300016984,6.598667500016745,7.583002500003204,7.583002500003204,7.950906499987468,c,1,0.36514700000407174,None,,,,,Participant 03,001,2025-10-03_20h30.41.100,Motor sequence task,,2025.1.1,59.943197818903734,2025-10-03 20h50.21.138034 +0530,
-150,z,3,3,0,z,1,0.49666160001652315,None,0,3,3,3,,,,,7.966961900005117,,7.951263899973128,7.966961900005117,8.95098640001379,8.95098640001379,8.95098640001379,8.95098640001379,8.96779730002163,9.953123999992386,9.953123999992386,10.453471800021362,z,1,0.49666160001652315,None,,,,,Participant 03,001,2025-10-03_20h30.41.100,Motor sequence task,,2025.1.1,59.943197818903734,2025-10-03 20h50.21.138034 +0530,
-50,x,4,0,1,x,1,0.3568171000224538,None,1,0,4,0,,,,,10.470260199974291,,10.453899600019213,10.470260199974291,11.454455300001428,11.454455300001428,11.454455300001428,11.454455300001428,11.471304800012149,12.455120800004806,12.455120800004806,12.823144100024365,x,1,0.3568171000224538,None,,,,,Participant 03,001,2025-10-03_20h30.41.100,Motor sequence task,,2025.1.1,59.943197818903734,2025-10-03 20h50.21.138034 +0530,
150,v,5,1,1,v,1,0.5847907999996096,None,1,1,5,1,,,,,12.838198899989948,,12.823603399971034,12.838198899989948,13.823254799994174,13.823254799994174,13.823254799994174,13.823254799994174,13.839952500013169,14.825719000014942,14.825719000014942,15.42564610001864,v,1,0.5847907999996096,None,,,,,Participant 03,001,2025-10-03_20h30.41.100,Motor sequence task,,2025.1.1,59.943197818903734,2025-10-03 20h50.21.138034 +0530,
50,c,6,2,1,c,1,1.1527108999434859,None,1,2,6,2,,,,,15.442010200000368,,15.425990400020964,15.442010200000368,16.426558499981184,16.426558499981184,16.426558499981184,16.426558499981184,16.442881099996157,17.426981099997647,17.426981099997647,18.580784999998286,c,1,1.1527108999434859,None,,,,,Participant 03,001,2025-10-03_20h30.41.100,Motor sequence task,,2025.1.1,59.943197818903734,2025-10-03 20h50.21.138034 +0530,
-150,z,7,3,1,z,1,0.42638920003082603,None,1,3,7,3,,,,,18.59577910002554,,18.581383000011556,18.59577910002554,19.596934399974998,19.596934399974998,19.596934399974998,19.596934399974998,19.596934399974998,20.581192300014663,20.581192300014663,21.014670600008685,z,1,0.42638920003082603,None,,,,,Participant 03,001,2025-10-03_20h30.41.100,Motor sequence task,,2025.1.1,59.943197818903734,2025-10-03 20h50.21.138034 +0530,
-50,x,8,0,2,x,1,0.365814600023441,None,2,0,8,0,,,,,21.03097500000149,,21.015035899996292,21.03097500000149,22.016047500015702,22.016047500015702,22.016047500015702,22.016047500015702,22.03295209998032,23.016882899974007,23.016882899974007,23.384525000001304,x,1,0.365814600023441,None,,,,,Participant 03,001,2025-10-03_20h30.41.100,Motor sequence task,,2025.1.1,59.943197818903734,2025-10-03 20h50.21.138034 +0530,
150,v,9,1,2,v,1,0.421955700032413,None,2,1,9,1,,,,,23.400907400005963,,23.384954000008292,23.400907400005963,24.38514969998505,24.38514969998505,24.38514969998505,24.38514969998505,24.401944799988996,25.386043399979826,25.386043399979826,25.821401000022888,v,1,0.421955700032413,None,,,,,Participant 03,001,2025-10-03_20h30.41.100,Motor sequence task,,2025.1.1,59.943197818903734,2025-10-03 20h50.21.138034 +0530,
50,c,10,2,2,c,1,0.39140490000136197,None,2,2,10,2,,,,,25.836419700004626,,25.82184220000636,25.836419700004626,26.82122470001923,26.82122470001923,26.82122470001923,26.82122470001923,26.83795439999085,27.822006299975328,27.822006299975328,28.22327529999893,c,1,0.39140490000136197,None,,,,,Participant 03,001,2025-10-03_20h30.41.100,Motor sequence task,,2025.1.1,59.943197818903734,2025-10-03 20h50.21.138034 +0530,
-150,z,11,3,2,z,1,0.33173199999146163,None,2,3,11,3,,,,,28.239804100012407,,28.22358659998281,28.239804100012407,29.223791899974458,29.223791899974458,29.223791899974458,29.223791899974458,29.240595699986443,30.224790700012818,30.224790700012818,30.558685900003184,z,1,0.33173199999146163,None,,,,,Participant 03,001,2025-10-03_20h30.41.100,Motor sequence task,,2025.1.1,59.943197818903734,2025-10-03 20h50.21.138034 +0530,
-50,x,12,0,3,x,1,0.31334829999832436,None,3,0,12,0,,,,,30.57556939998176,,30.559046700014733,30.57556939998176,31.559142099984456,31.559142099984456,31.559142099984456,31.559142099984456,31.57610529998783,32.5602791000274,32.5602791000274,32.87914959999034,x,1,0.31334829999832436,None,,,,,Participant 03,001,2025-10-03_20h30.41.100,Motor sequence task,,2025.1.1,59.943197818903734,2025-10-03 20h50.21.138034 +0530,
150,v,13,1,3,v,1,0.3017765000113286,None,3,1,13,1,,,,,32.89411110000219,,32.87955269997474,32.89411110000219,33.87894289998803,33.87894289998803,33.87894289998803,33.87894289998803,33.89564840000821,34.87977120000869,34.87977120000869,35.19693340000231,v,1,0.3017765000113286,None,,,,,Participant 03,001,2025-10-03_20h30.41.100,Motor sequence task,,2025.1.1,59.943197818903734,2025-10-03 20h50.21.138034 +0530,
50,c,14,2,3,c,1,0.5114062000066042,None,3,2,14,2,,,,,35.21368220000295,,35.19726779998746,35.21368220000295,36.19751379999798,36.19751379999798,36.19751379999798,36.19751379999798,36.2153836999787,37.199547500000335,37.199547500000335,37.71719180000946,c,1,0.5114062000066042,None,,,,,Participant 03,001,2025-10-03_20h30.41.100,Motor sequence task,,2025.1.1,59.943197818903734,2025-10-03 20h50.21.138034 +0530,
-150,z,15,3,3,z,1,0.41254220000701025,None,3,3,15,3,,,,,37.733584099973086,,37.71755689999554,37.733584099973086,38.717692199978046,38.717692199978046,38.717692199978046,38.717692199978046,38.73438310000347,39.718548899982125,39.718548899982125,40.13661990000401,z,1,0.41254220000701025,None,,,,,Participant 03,001,2025-10-03_20h30.41.100,Motor sequence task,,2025.1.1,59.943197818903734,2025-10-03 20h50.21.138034 +0530,
-50,x,16,0,4,x,1,0.354754000029061,None,4,0,16,0,,,,,40.15303510002559,,40.136932699999306,40.15303510002559,41.13694659998873,41.13694659998873,41.13694659998873,41.13694659998873,41.15370020002592,42.137725199980196,42.137725199980196,42.50525960000232,x,1,0.354754000029061,None,,,,,Participant 03,001,2025-10-03_20h30.41.100,Motor sequence task,,2025.1.1,59.943197818903734,2025-10-03 20h50.21.138034 +0530,
150,v,17,1,4,v,1,0.6282333999988623,None,4,1,17,1,,,,,42.52172670001164,,42.505628400016576,42.52172670001164,43.5059519999777,43.5059519999777,43.5059519999777,43.5059519999777,43.52270979998866,44.50691270001698,44.50691270001698,45.14190960000269,v,1,0.6282333999988623,None,,,,,Participant 03,001,2025-10-03_20h30.41.100,Motor sequence task,,2025.1.1,59.943197818903734,2025-10-03 20h50.21.138034 +0530,
50,c,18,2,4,c,1,0.35364469996420667,None,4,2,18,2,,,,,45.158144999993965,,45.14229410002008,45.158144999993965,46.142528700002,46.142528700002,46.142528700002,46.142528700002,46.15909149998333,47.143261199991684,47.143261199991684,47.51088269997854,c,1,0.35364469996420667,None,,,,,Participant 03,001,2025-10-03_20h30.41.100,Motor sequence task,,2025.1.1,59.943197818903734,2025-10-03 20h50.21.138034 +0530,
-150,z,19,3,4,z,1,0.4752847999916412,None,4,3,19,3,,,,,47.52729190001264,,47.51119190000463,47.52729190001264,48.5114418999874,48.5114418999874,48.5114418999874,48.5114418999874,48.52842539997073,49.512406299996655,49.512406299996655,49.996735299995635,z,1,0.4752847999916412,None,,,,,Participant 03,001,2025-10-03_20h30.41.100,Motor sequence task,,2025.1.1,59.943197818903734,2025-10-03 20h50.21.138034 +0530,
-50,x,20,0,5,x,1,0.2984135000151582,None,5,0,20,0,,,,,50.01276810001582,,49.99716430000262,50.01276810001582,50.99828519998118,50.99828519998118,50.99828519998118,50.99828519998118,51.01444320002338,51.99913840001682,51.99913840001682,52.29925410001306,x,1,0.2984135000151582,None,,,,,Participant 03,001,2025-10-03_20h30.41.100,Motor sequence task,,2025.1.1,59.943197818903734,2025-10-03 20h50.21.138034 +0530,
150,v,21,1,5,v,1,0.36434520001057535,None,5,1,21,1,,,,,52.315578099980485,,52.29964109999128,52.315578099980485,53.30103339999914,53.30103339999914,53.30103339999914,53.30103339999914,53.316624699975364,54.301728999998886,54.301728999998886,54.66955890000099,v,1,0.36434520001057535,None,,,,,Participant 03,001,2025-10-03_20h30.41.100,Motor sequence task,,2025.1.1,59.943197818903734,2025-10-03 20h50.21.138034 +0530,
50,c,22,2,5,c,1,0.35084500000812113,None,5,2,22,2,,,,,54.68450909998501,,54.66995080001652,54.68450909998501,55.66986760002328,55.66986760002328,55.66986760002328,55.66986760002328,55.6855641999864,56.670863099978305,56.670863099978305,57.03850450000027,c,1,0.35084500000812113,None,,,,,Participant 03,001,2025-10-03_20h30.41.100,Motor sequence task,,2025.1.1,59.943197818903734,2025-10-03 20h50.21.138034 +0530,
-150,z,23,3,5,z,1,0.36234729998977855,None,5,3,23,3,,,,,57.05473540001549,,57.03881629998796,57.05473540001549,58.038069000002,58.038069000002,58.038069000002,58.038069000002,58.055633799987845,59.03963499999372,59.03963499999372,59.40734610002255,z,1,0.36234729998977855,None,,,,,Participant 03,001,2025-10-03_20h30.41.100,Motor sequence task,,2025.1.1,59.943197818903734,2025-10-03 20h50.21.138034 +0530,
-50,x,24,0,6,x,1,0.5556514000054449,None,6,0,24,0,,,,,59.423740300000645,,59.40773450001143,59.423740300000645,60.40788600000087,60.40788600000087,60.40788600000087,60.40788600000087,60.42439330002526,61.409797100001015,61.409797100001015,61.97723780001979,x,1,0.5556514000054449,None,,,,,Participant 03,001,2025-10-03_20h30.41.100,Motor sequence task,,2025.1.1,59.943197818903734,2025-10-03 20h50.21.138034 +0530,
150,v,25,1,6,v,1,0.5854477999964729,None,6,1,25,1,,,,,61.99243609997211,,61.97766989999218,61.99243609997211,62.97725940000964,62.97725940000964,62.97725940000964,62.97725940000964,62.99400160001824,63.97827600000892,63.97827600000892,64.57998069998575,v,1,0.5854477999964729,None,,,,,Participant 03,001,2025-10-03_20h30.41.100,Motor sequence task,,2025.1.1,59.943197818903734,2025-10-03 20h50.21.138034 +0530,
50,c,26,2,6,c,1,0.3687431000289507,None,6,2,26,2,,,,,64.5960272999946,,64.58052479999606,64.5960272999946,65.58021149999695,65.58021149999695,65.58021149999695,65.58021149999695,65.59685410000384,66.58117600000696,66.58117600000696,66.9655523999827,c,1,0.3687431000289507,None,,,,,Participant 03,001,2025-10-03_20h30.41.100,Motor sequence task,,2025.1.1,59.943197818903734,2025-10-03 20h50.21.138034 +0530,
-150,z,27,3,6,z,1,0.3551590000279248,None,6,3,27,3,,,,,66.98208859999431,,66.96620959998108,66.98208859999431,67.96593339997344,67.96593339997344,67.96593339997344,67.96593339997344,67.98288139997749,68.96682550001424,68.96682550001424,69.33469390001846,z,1,0.3551590000279248,None,,,,,Participant 03,001,2025-10-03_20h30.41.100,Motor sequence task,,2025.1.1,59.943197818903734,2025-10-03 20h50.21.138034 +0530,
-50,x,28,0,7,x,1,0.33562179998261854,None,7,0,28,0,,,,,69.3510122000007,,69.3351493999944,69.3510122000007,70.33600339997793,70.33600339997793,70.33600339997793,70.33600339997793,70.35188630002085,71.33695600001374,71.33695600001374,71.6878947999794,x,1,0.33562179998261854,None,,,,,Participant 03,001,2025-10-03_20h30.41.100,Motor sequence task,,2025.1.1,59.943197818903734,2025-10-03 20h50.21.138034 +0530,
150,v,29,1,7,v,1,0.3879700999823399,None,7,1,29,1,,,,,71.70405389997177,,71.68837089999579,71.70405389997177,72.68810430000303,72.68810430000303,72.68810430000303,72.68810430000303,72.70493930001976,73.68925429997034,73.68925429997034,74.0903686999809,v,1,0.3879700999823399,None,,,,,Participant 03,001,2025-10-03_20h30.41.100,Motor sequence task,,2025.1.1,59.943197818903734,2025-10-03 20h50.21.138034 +0530,
50,c,30,2,7,c,1,0.3005867999745533,None,7,2,30,2,,,,,74.10666960000526,,74.09077090001665,74.10666960000526,75.09058919997187,75.09058919997187,75.09058919997187,75.09058919997187,75.10748690000037,76.09177579998504,76.09177579998504,76.4089153999812,c,1,0.3005867999745533,None,,,,,Participant 03,001,2025-10-03_20h30.41.100,Motor sequence task,,2025.1.1,59.943197818903734,2025-10-03 20h50.21.138034 +0530,
-150,z,31,3,7,z,1,0.2927188000176102,None,7,3,31,3,,,,,76.42558819998521,,76.40928339998936,76.42558819998521,77.4096118999878,77.4096118999878,77.4096118999878,77.4096118999878,77.42712730000494,78.41132409998681,78.41132409998681,78.71176729997387,z,1,0.2927188000176102,None,,,,,Participant 03,001,2025-10-03_20h30.41.100,Motor sequence task,,2025.1.1,59.943197818903734,2025-10-03 20h50.21.138034 +0530,
-50,x,32,0,8,x,1,0.36081479996209964,None,8,0,32,0,,,,,78.72821769997245,,78.7121979999938,78.72821769997245,79.71237839997048,79.71237839997048,79.71237839997048,79.71237839997048,79.72903159999987,80.71314220002387,80.71314220002387,81.08096549997572,x,1,0.36081479996209964,None,,,,,Participant 03,001,2025-10-03_20h30.41.100,Motor sequence task,,2025.1.1,59.943197818903734,2025-10-03 20h50.21.138034 +0530,
150,v,33,1,8,v,1,0.4115085999947041,None,8,1,33,1,,,,,81.09722619998502,,81.08138039999176,81.09722619998502,82.08233220002148,82.08233220002148,82.08233220002148,82.08233220002148,82.09806980000576,83.08322410000255,83.08322410000255,83.50035270000808,v,1,0.4115085999947041,None,,,,,Participant 03,001,2025-10-03_20h30.41.100,Motor sequence task,,2025.1.1,59.943197818903734,2025-10-03 20h50.21.138034 +0530,
50,c,34,2,8,c,1,0.2651047999970615,None,8,2,34,2,,,,,83.51659720001044,,83.5007326999912,83.51659720001044,84.50167869997676,84.50167869997676,84.50167869997676,84.50167869997676,84.51751560001867,85.50267489999533,85.50267489999533,85.76934900000924,c,1,0.2651047999970615,None,,,,,Participant 03,001,2025-10-03_20h30.41.100,Motor sequence task,,2025.1.1,59.943197818903734,2025-10-03 20h50.21.138034 +0530,
-150,z,35,3,8,z,1,0.34838749998016283,None,8,3,35,3,,,,,85.78578059998108,,85.76967050001258,85.78578059998108,86.7700531000155,86.7700531000155,86.7700531000155,86.7700531000155,86.78668359998846,87.77194720000261,87.77194720000261,88.12268009997206,z,1,0.34838749998016283,None,,,,,Participant 03,001,2025-10-03_20h30.41.100,Motor sequence task,,2025.1.1,59.943197818903734,2025-10-03 20h50.21.138034 +0530,
-50,x,36,0,9,x,1,0.2970201999996789,None,9,0,36,0,,,,,88.1381846999866,,88.12305900000501,88.1381846999866,89.12342080002418,89.12342080002418,89.12342080002418,89.12342080002418,89.13997840002412,90.12414869997883,90.12414869997883,90.42436499998439,x,1,0.2970201999996789,None,,,,,Participant 03,001,2025-10-03_20h30.41.100,Motor sequence task,,2025.1.1,59.943197818903734,2025-10-03 20h50.21.138034 +0530,
150,v,37,1,9,v,1,0.3141089000273496,None,9,1,37,1,,,,,90.44082199997501,,90.42474940000102,90.44082199997501,91.4250400000019,91.4250400000019,91.4250400000019,91.4250400000019,91.44174249999924,92.42677469999762,92.42677469999762,92.74435340001946,v,1,0.3141089000273496,None,,,,,Participant 03,001,2025-10-03_20h30.41.100,Motor sequence task,,2025.1.1,59.943197818903734,2025-10-03 20h50.21.138034 +0530,
50,c,38,2,9,c,1,0.37630350003018975,None,9,2,38,2,,,,,92.7604528000229,,92.74477990000742,92.7604528000229,93.74454550002702,93.74454550002702,93.74454550002702,93.74454550002702,93.76138999999966,94.74564789998112,94.74564789998112,95.13022079999791,c,1,0.37630350003018975,None,,,,,Participant 03,001,2025-10-03_20h30.41.100,Motor sequence task,,2025.1.1,59.943197818903734,2025-10-03 20h50.21.138034 +0530,
-150,z,39,3,9,z,1,0.4939589999848977,None,9,3,39,3,,,,,95.1465228999732,,95.1306648000027,95.1465228999732,96.13034430000698,96.13034430000698,96.13034430000698,96.13034430000698,96.147106599994,97.1313674999983,97.1313674999983,97.63234249997186,z,1,0.4939589999848977,None,,,,,Participant 03,001,2025-10-03_20h30.41.100,Motor sequence task,,2025.1.1,59.943197818903734,2025-10-03 20h50.21.138034 +0530,
-50,x,40,0,10,x,1,0.2952076999936253,None,10,0,40,0,,,,,97.64877239998896,,97.63276589999441,97.64877239998896,98.63366160000442,98.63366160000442,98.63366160000442,98.63366160000442,98.65044330002274,99.63483589998214,99.63483589998214,99.93562990002101,x,1,0.2952076999936253,None,,,,,Participant 03,001,2025-10-03_20h30.41.100,Motor sequence task,,2025.1.1,59.943197818903734,2025-10-03 20h50.21.138034 +0530,
150,v,41,1,10,v,1,0.4221636999864131,None,10,1,41,1,,,,,99.95074589998694,,99.93614890001481,99.95074589998694,100.93554510001559,100.93554510001559,100.93554510001559,100.93554510001559,100.95236240001395,101.93651799997315,101.93651799997315,102.37152520002564,v,1,0.4221636999864131,None,,,,,Participant 03,001,2025-10-03_20h30.41.100,Motor sequence task,,2025.1.1,59.943197818903734,2025-10-03 20h50.21.138034 +0530,
50,c,42,2,10,c,1,0.4540395999792963,None,10,2,42,2,,,,,102.38771280000219,,102.37195709999651,102.38771280000219,103.37157409999054,103.37157409999054,103.37157409999054,103.37157409999054,103.3884133999818,104.37313710001763,104.37313710001763,104.84104410000145,c,1,0.4540395999792963,None,,,,,Participant 03,001,2025-10-03_20h30.41.100,Motor sequence task,,2025.1.1,59.943197818903734,2025-10-03 20h50.21.138034 +0530,
-150,z,43,3,10,z,1,0.27523899998050183,None,10,3,43,3,,,,,104.85738170001423,,104.84147879999364,104.85738170001423,105.8414242999861,105.8414242999861,105.8414242999861,105.8414242999861,105.85839930002112,106.84216609998839,106.84216609998839,107.1265049999929,z,1,0.27523899998050183,None,,,,,Participant 03,001,2025-10-03_20h30.41.100,Motor sequence task,,2025.1.1,59.943197818903734,2025-10-03 20h50.21.138034 +0530,
-50,x,44,0,11,x,1,0.332869199977722,None,11,0,44,0,,,,,107.14247939997585,,107.12690969998948,107.14247939997585,108.1276460000081,108.1276460000081,108.1276460000081,108.1276460000081,108.14331090002088,109.12865610001609,109.12865610001609,109.46257069997955,x,1,0.332869199977722,None,,,,,Participant 03,001,2025-10-03_20h30.41.100,Motor sequence task,,2025.1.1,59.943197818903734,2025-10-03 20h50.21.138034 +0530,
150,v,45,1,11,v,1,0.5323557000374421,None,11,1,45,1,,,,,109.47891569999047,,109.46287799999118,109.47891569999047,110.46280019998085,110.46280019998085,110.46280019998085,110.46280019998085,110.47975340002449,111.46387069998309,111.46387069998309,111.998481800023,v,1,0.5323557000374421,None,,,,,Participant 03,001,2025-10-03_20h30.41.100,Motor sequence task,,2025.1.1,59.943197818903734,2025-10-03 20h50.21.138034 +0530,
50,c,46,2,11,c,1,0.298739799996838,None,11,2,46,2,,,,,112.0146839999943,,111.99898340000072,112.0146839999943,112.99881239997922,112.99881239997922,112.99881239997922,112.99881239997922,113.01556899998104,114.00081639998825,114.00081639998825,114.30123949999688,c,1,0.298739799996838,None,,,,,Participant 03,001,2025-10-03_20h30.41.100,Motor sequence task,,2025.1.1,59.943197818903734,2025-10-03 20h50.21.138034 +0530,
-150,z,47,3,11,z,1,0.768255400005728,None,11,3,47,3,,,,,114.31772569997702,,114.30162530002417,114.31772569997702,115.30157489998965,115.30157489998965,115.30157489998965,115.30157489998965,115.31843849999132,116.3029107999755,116.3029107999755,117.08781419997104,z,1,0.768255400005728,None,,,,,Participant 03,001,2025-10-03_20h30.41.100,Motor sequence task,,2025.1.1,59.943197818903734,2025-10-03 20h50.21.138034 +0530,
-50,x,48,0,12,x,1,0.6864382000057958,None,12,0,48,0,,,,,117.10319860000163,,117.08812039997429,117.10319860000163,118.08838929998456,118.08838929998456,118.08838929998456,118.08838929998456,118.1051192000159,119.08902750001289,119.08902750001289,119.79070379998302,x,1,0.6864382000057958,None,,,,,Participant 03,001,2025-10-03_20h30.41.100,Motor sequence task,,2025.1.1,59.943197818903734,2025-10-03 20h50.21.138034 +0530,
150,v,49,1,12,v,1,1.0383777000242844,None,12,1,49,1,,,,,119.80678099999204,,119.79112730000634,119.80678099999204,120.79076519998489,120.79076519998489,120.79076519998489,120.79076519998489,120.80749360000482,121.79166919999989,121.79166919999989,122.84393069997896,v,1,1.0383777000242844,None,,,,,Participant 03,001,2025-10-03_20h30.41.100,Motor sequence task,,2025.1.1,59.943197818903734,2025-10-03 20h50.21.138034 +0530,
50,c,50,2,12,c,1,0.35946680000051856,None,12,2,50,2,,,,,122.85977689997526,,122.84431559999939,122.85977689997526,123.84395220002625,123.84395220002625,123.84395220002625,123.84395220002625,123.86073680000845,124.84588600002462,124.84588600002462,125.21235950000118,c,1,0.35946680000051856,None,,,,,Participant 03,001,2025-10-03_20h30.41.100,Motor sequence task,,2025.1.1,59.943197818903734,2025-10-03 20h50.21.138034 +0530,
-150,z,51,3,12,z,1,0.18817909999052063,None,12,3,51,3,,,,,125.22888230002718,,125.21267749997787,125.22888230002718,126.21377949998714,126.21377949998714,126.21377949998714,126.21377949998714,126.23076070001116,127.21482210000977,127.21482210000977,127.4155819999869,z,1,0.18817909999052063,None,,,,,Participant 03,001,2025-10-03_20h30.41.100,Motor sequence task,,2025.1.1,59.943197818903734,2025-10-03 20h50.21.138034 +0530,
-50,x,52,0,13,x,1,0.4423833000473678,None,13,0,52,0,,,,,127.4320700999815,,127.41592860000674,127.4320700999815,128.4161239999812,128.4161239999812,128.4161239999812,128.4161239999812,128.432867800002,129.41689370002132,129.41689370002132,129.86757180001587,x,1,0.4423833000473678,None,,,,,Participant 03,001,2025-10-03_20h30.41.100,Motor sequence task,,2025.1.1,59.943197818903734,2025-10-03 20h50.21.138034 +0530,
150,v,53,1,13,v,1,1.053241399989929,None,13,1,53,1,,,,,129.88391089998186,,129.86795689997962,129.88391089998186,130.86918729997706,130.86918729997706,130.86918729997706,130.86918729997706,130.88476809998974,131.8698873000103,131.8698873000103,132.94009079999523,v,1,1.053241399989929,None,,,,,Participant 03,001,2025-10-03_20h30.41.100,Motor sequence task,,2025.1.1,59.943197818903734,2025-10-03 20h50.21.138034 +0530,
50,c,54,2,13,c,1,0.44696750002913177,None,13,2,54,2,,,,,132.9536871999735,,132.9404654999962,132.9536871999735,133.95573769998737,133.95573769998737,133.95573769998737,133.95573769998737,133.95573769998737,134.9396525999764,134.9396525999764,135.39070559997344,c,1,0.44696750002913177,None,,,,,Participant 03,001,2025-10-03_20h30.41.100,Motor sequence task,,2025.1.1,59.943197818903734,2025-10-03 20h50.21.138034 +0530,
-150,z,55,3,13,z,1,0.4508638000115752,None,13,3,55,3,,,,,135.4067143999855,,135.39105999999447,135.4067143999855,136.3918670999701,136.3918670999701,136.3918670999701,136.3918670999701,136.40865140000824,137.39270520000719,137.39270520000719,137.860081300023,z,1,0.4508638000115752,None,,,,,Participant 03,001,2025-10-03_20h30.41.100,Motor sequence task,,2025.1.1,59.943197818903734,2025-10-03 20h50.21.138034 +0530,
-50,x,56,0,14,x,1,0.2926288000307977,None,14,0,56,0,,,,,137.8763502999791,,137.86049799999455,137.8763502999791,138.86041979998117,138.86041979998117,138.86041979998117,138.86041979998117,138.8772804000182,139.86140759999398,139.86140759999398,140.16308129997924,x,1,0.2926288000307977,None,,,,,Participant 03,001,2025-10-03_20h30.41.100,Motor sequence task,,2025.1.1,59.943197818903734,2025-10-03 20h50.21.138034 +0530,
150,v,57,1,14,v,1,0.422405399964191,None,14,1,57,1,,,,,140.17919920000713,,140.1634945999831,140.17919920000713,141.16341839998495,141.16341839998495,141.16341839998495,141.16341839998495,141.1802409000229,142.16436689998955,142.16436689998955,142.59927750000497,v,1,0.422405399964191,None,,,,,Participant 03,001,2025-10-03_20h30.41.100,Motor sequence task,,2025.1.1,59.943197818903734,2025-10-03 20h50.21.138034 +0530,
50,c,58,2,14,c,1,0.4024955999921076,None,14,2,58,2,,,,,142.6154974999954,,142.59976319997804,142.6154974999954,143.59952390001854,143.59952390001854,143.59952390001854,143.59952390001854,143.6161798000103,144.60029149998445,144.60029149998445,145.01844959997106,c,1,0.4024955999921076,None,,,,,Participant 03,001,2025-10-03_20h30.41.100,Motor sequence task,,2025.1.1,59.943197818903734,2025-10-03 20h50.21.138034 +0530,
-150,z,59,3,14,z,1,0.6047076000249945,None,14,3,59,3,,,,,145.03472559998045,,145.01877490000334,145.03472559998045,146.01890419999836,146.01890419999836,146.01890419999836,146.01890419999836,146.03561129997252,147.01890369999455,147.01890369999455,147.63852119998774,z,1,0.6047076000249945,None,,,,,Participant 03,001,2025-10-03_20h30.41.100,Motor sequence task,,2025.1.1,59.943197818903734,2025-10-03 20h50.21.138034 +0530,
-50,x,60,0,15,x,1,0.30737900000531226,None,15,0,60,0,,,,,147.65428309998242,,147.63893249997636,147.65428309998242,148.63860860001296,148.63860860001296,148.63860860001296,148.63860860001296,148.65560950001236,149.63956619997043,149.63956619997043,149.95670929999324,x,1,0.30737900000531226,None,,,,,Participant 03,001,2025-10-03_20h30.41.100,Motor sequence task,,2025.1.1,59.943197818903734,2025-10-03 20h50.21.138034 +0530,
150,v,61,1,15,v,1,0.4155286999884993,None,15,1,61,1,,,,,149.97298630001023,,149.9570738999755,149.97298630001023,150.95714910002425,150.95714910002425,150.95714910002425,150.95714910002425,150.9745790999732,151.95795110001927,151.95795110001927,152.37600460002432,v,1,0.4155286999884993,None,,,,,Participant 03,001,2025-10-03_20h30.41.100,Motor sequence task,,2025.1.1,59.943197818903734,2025-10-03 20h50.21.138034 +0530,
50,c,62,2,15,c,1,0.43529249995481223,None,15,2,62,2,,,,,152.392101800011,,152.37645149999298,152.392101800011,153.37648620002437,153.37648620002437,153.37648620002437,153.37648620002437,153.3933235000004,154.37743250001222,154.37743250001222,154.82898420002311,c,1,0.43529249995481223,None,,,,,Participant 03,001,2025-10-03_20h30.41.100,Motor sequence task,,2025.1.1,59.943197818903734,2025-10-03 20h50.21.138034 +0530,
-150,z,63,3,15,z,1,0.3834389999974519,None,15,3,63,3,,,,,154.84538640000392,,154.82934840000235,154.84538640000392,155.82935650000582,155.82935650000582,155.82935650000582,155.82935650000582,155.8462977000163,156.83022110001184,156.83022110001184,157.21498930000234,z,1,0.3834389999974519,None,,,,,Participant 03,001,2025-10-03_20h30.41.100,Motor sequence task,,2025.1.1,59.943197818903734,2025-10-03 20h50.21.138034 +0530,
-50,x,64,0,16,x,1,0.7321137000108138,None,16,0,64,0,,,,,157.23131569998804,,157.21555670001544,157.23131569998804,158.21514470002148,158.21514470002148,158.21514470002148,158.21514470002148,158.23189009999624,159.21609679999528,159.21609679999528,159.95093699998688,x,1,0.7321137000108138,None,,,,,Participant 03,001,2025-10-03_20h30.41.100,Motor sequence task,,2025.1.1,59.943197818903734,2025-10-03 20h50.21.138034 +0530,
150,v,65,1,16,v,1,0.46085660002427176,None,16,1,65,1,,,,,159.9672776000225,,159.9513227000134,159.9672776000225,160.9515610000235,160.9515610000235,160.9515610000235,160.9515610000235,160.968327199982,161.9526491999859,161.9526491999859,162.41958559997147,v,1,0.46085660002427176,None,,,,,Participant 03,001,2025-10-03_20h30.41.100,Motor sequence task,,2025.1.1,59.943197818903734,2025-10-03 20h50.21.138034 +0530,
50,c,66,2,16,c,1,0.36232190002920106,None,16,2,66,2,,,,,162.4374986999901,,162.41993109998293,162.4374986999901,163.42116049997276,163.42116049997276,163.42116049997276,163.42116049997276,163.4381700999802,164.42235740000615,164.42235740000615,164.78971829998773,c,1,0.36232190002920106,None,,,,,Participant 03,001,2025-10-03_20h30.41.100,Motor sequence task,,2025.1.1,59.943197818903734,2025-10-03 20h50.21.138034 +0530,
-150,z,67,3,16,z,1,0.21856969996588305,None,16,3,67,3,,,,,164.8059064000263,,164.79008950002026,164.8059064000263,165.7900999999838,165.7900999999838,165.7900999999838,165.7900999999838,165.80697159998817,166.79118699999526,166.79118699999526,167.02590279997094,z,1,0.21856969996588305,None,,,,,Participant 03,001,2025-10-03_20h30.41.100,Motor sequence task,,2025.1.1,59.943197818903734,2025-10-03 20h50.21.138034 +0530,
-50,x,68,0,17,x,1,1.2655227999784984,None,17,0,68,0,,,,,167.04164810001384,,167.02632090001134,167.04164810001384,168.02629389998037,168.02629389998037,168.02629389998037,168.02629389998037,168.04279919998953,169.0267664999701,169.0267664999701,170.2956822999986,x,1,1.2655227999784984,None,,,,,Participant 03,001,2025-10-03_20h30.41.100,Motor sequence task,,2025.1.1,59.943197818903734,2025-10-03 20h50.21.138034 +0530,
150,v,69,1,17,v,1,0.2934087000321597,None,17,1,69,1,,,,,170.31189319997793,,170.29615690000355,170.31189319997793,171.29618659999687,171.29618659999687,171.29618659999687,171.29618659999687,171.31307630002266,172.29684429999907,172.29684429999907,172.59871719998773,v,1,0.2934087000321597,None,,,,,Participant 03,001,2025-10-03_20h30.41.100,Motor sequence task,,2025.1.1,59.943197818903734,2025-10-03 20h50.21.138034 +0530,
50,c,70,2,17,c,1,0.3984420000342652,None,17,2,70,2,,,,,172.61475930002052,,172.59921580000082,172.61475930002052,173.59880959999282,173.59880959999282,173.59880959999282,173.59880959999282,173.61580749996938,174.5999609999708,174.5999609999708,175.0010864000069,c,1,0.3984420000342652,None,,,,,Participant 03,001,2025-10-03_20h30.41.100,Motor sequence task,,2025.1.1,59.943197818903734,2025-10-03 20h50.21.138034 +0530,
-150,z,71,3,17,z,1,0.4145643999800086,None,17,3,71,3,,,,,175.01749140000902,,175.001385200012,175.01749140000902,176.00142490002327,176.00142490002327,176.00142490002327,176.00142490002327,176.0184212999884,177.00249420001637,177.00249420001637,177.4205802999786,z,1,0.4145643999800086,None,,,,,Participant 03,001,2025-10-03_20h30.41.100,Motor sequence task,,2025.1.1,59.943197818903734,2025-10-03 20h50.21.138034 +0530,
-50,x,72,0,18,c,0,0.4974351999699138,None,18,0,72,0,,,,,177.43586269998923,,177.42097159998957,177.43586269998923,178.42100829997798,178.42100829997798,178.42100829997798,178.42100829997798,178.43773730000248,179.4217820999911,179.4217820999911,179.9226869000122,c,0,0.4974351999699138,None,,,,,Participant 03,001,2025-10-03_20h30.41.100,Motor sequence task,,2025.1.1,59.943197818903734,2025-10-03 20h50.21.138034 +0530,
150,v,73,1,18,v,1,0.7851885999552906,None,18,1,73,1,,,,,179.93903249996947,,179.9230680000037,179.93903249996947,180.9231314000208,180.9231314000208,180.9231314000208,180.9231314000208,180.94108060002327,181.92513739998685,181.92513739998685,182.7258734999923,v,1,0.7851885999552906,None,,,,,Participant 03,001,2025-10-03_20h30.41.100,Motor sequence task,,2025.1.1,59.943197818903734,2025-10-03 20h50.21.138034 +0530,
50,c,74,2,18,c,1,0.7766727000125684,None,18,2,74,2,,,,,182.74227799999062,,182.72624930000165,182.74227799999062,183.72642319998704,183.72642319998704,183.72642319998704,183.72642319998704,183.7432482999866,184.72748709999723,184.72748709999723,185.51262280001538,c,1,0.7766727000125684,None,,,,,Participant 03,001,2025-10-03_20h30.41.100,Motor sequence task,,2025.1.1,59.943197818903734,2025-10-03 20h50.21.138034 +0530,
-150,z,75,3,18,z,1,0.4661700999713503,None,18,3,75,3,,,,,185.52892830001656,,185.5130357000162,185.52892830001656,186.5130006999825,186.5130006999825,186.5130006999825,186.5130006999825,186.5298259999836,187.51388569996925,187.51388569996925,187.9822457000264,z,1,0.4661700999713503,None,,,,,Participant 03,001,2025-10-03_20h30.41.100,Motor sequence task,,2025.1.1,59.943197818903734,2025-10-03 20h50.21.138034 +0530,
-50,x,76,0,19,x,1,0.5596814000164159,None,19,0,76,0,,,,,187.99839859997155,,187.98271640000166,187.99839859997155,188.9827934000059,188.9827934000059,188.9827934000059,188.9827934000059,188.99960909999209,189.98378549999325,189.98378549999325,190.55183429998579,x,1,0.5596814000164159,None,,,,,Participant 03,001,2025-10-03_20h30.41.100,Motor sequence task,,2025.1.1,59.943197818903734,2025-10-03 20h50.21.138034 +0530,
150,v,77,1,19,v,1,1.3082665000110865,None,19,1,77,1,,,,,190.56698469998082,,190.55221739999251,190.56698469998082,191.55224220000673,191.55224220000673,191.55224220000673,191.55224220000673,191.5689374000067,192.55315940000582,192.55315940000582,193.87123739998788,v,1,1.3082665000110865,None,,,,,Participant 03,001,2025-10-03_20h30.41.100,Motor sequence task,,2025.1.1,59.943197818903734,2025-10-03 20h50.21.138034 +0530,
50,c,78,2,19,c,1,0.4470743000274524,None,19,2,78,2,,,,,193.88754939998034,,193.87161009997362,193.88754939998034,194.87284809997072,194.87284809997072,194.87284809997072,194.87284809997072,194.88844980002614,195.87367000000086,195.87367000000086,196.3243682999746,c,1,0.4470743000274524,None,,,,,Participant 03,001,2025-10-03_20h30.41.100,Motor sequence task,,2025.1.1,59.943197818903734,2025-10-03 20h50.21.138034 +0530,
-150,z,79,3,19,z,1,0.3465565000078641,None,19,3,79,3,,,,,196.34010179998586,,196.32485889998497,196.34010179998586,197.32456709997496,197.32456709997496,197.32456709997496,197.32456709997496,197.3412820000085,198.32655699999304,198.32655699999304,198.6776745999814,z,1,0.3465565000078641,None,,,,,Participant 03,001,2025-10-03_20h30.41.100,Motor sequence task,,2025.1.1,59.943197818903734,2025-10-03 20h50.21.138034 +0530,
-50,x,80,0,20,x,1,0.34388250001939014,None,20,0,80,0,,,,,198.69255640002666,,198.67801929998677,198.69255640002666,199.6778226000024,199.6778226000024,199.6778226000024,199.6778226000024,199.69464559998596,200.67873029998736,200.67873029998736,201.02968139998848,x,1,0.34388250001939014,None,,,,,Participant 03,001,2025-10-03_20h30.41.100,Motor sequence task,,2025.1.1,59.943197818903734,2025-10-03 20h50.21.138034 +0530,
150,v,81,1,20,v,1,0.3141726999892853,None,20,1,81,1,,,,,201.0460279000108,,201.03005820000544,201.0460279000108,202.0300511000096,202.0300511000096,202.0300511000096,202.0300511000096,202.04664429998957,203.03091849997872,203.03091849997872,203.34842290001689,v,1,0.3141726999892853,None,,,,,Participant 03,001,2025-10-03_20h30.41.100,Motor sequence task,,2025.1.1,59.943197818903734,2025-10-03 20h50.21.138034 +0530,
50,c,82,2,20,c,1,0.275575999985449,None,20,2,82,2,,,,,203.36564229999203,,203.34880310000153,203.36564229999203,204.35010799998417,204.35010799998417,204.35010799998417,204.35010799998417,204.36574480001582,205.35071580001386,205.35071580001386,205.63532669999404,c,1,0.275575999985449,None,,,,,Participant 03,001,2025-10-03_20h30.41.100,Motor sequence task,,2025.1.1,59.943197818903734,2025-10-03 20h50.21.138034 +0530,
-150,z,83,3,20,z,1,0.42410439997911453,None,20,3,83,3,,,,,205.65067100001033,,205.6356372999726,205.65067100001033,206.6355902000214,206.6355902000214,206.6355902000214,206.6355902000214,206.65146139997523,207.63682269997662,207.63682269997662,208.07053999998607,z,1,0.42410439997911453,None,,,,,Participant 03,001,2025-10-03_20h30.41.100,Motor sequence task,,2025.1.1,59.943197818903734,2025-10-03 20h50.21.138034 +0530,
-50,x,84,0,21,x,1,0.28220580000197515,None,21,0,84,0,,,,,208.08662409998942,,208.07109240000136,208.08662409998942,209.0708403000026,209.0708403000026,209.0708403000026,209.0708403000026,209.0877985000261,210.0720266000135,210.0720266000135,210.3565634000115,x,1,0.28220580000197515,None,,,,,Participant 03,001,2025-10-03_20h30.41.100,Motor sequence task,,2025.1.1,59.943197818903734,2025-10-03 20h50.21.138034 +0530,
150,v,85,1,21,v,1,0.31931679998524487,None,21,1,85,1,,,,,210.37293419998605,,210.35693720000563,210.37293419998605,211.35704919998534,211.35704919998534,211.35704919998534,211.35704919998534,211.3739958999795,212.35775299998932,212.35775299998932,212.69197639997583,v,1,0.31931679998524487,None,,,,,Participant 03,001,2025-10-03_20h30.41.100,Motor sequence task,,2025.1.1,59.943197818903734,2025-10-03 20h50.21.138034 +0530,
50,c,86,2,21,c,1,0.4095602000015788,None,21,2,86,2,,,,,212.708444399992,,212.69234549999237,212.708444399992,213.69241860002512,213.69241860002512,213.69241860002512,213.69241860002512,213.70922129997052,214.69448110001395,214.69448110001395,215.11137539998163,c,1,0.4095602000015788,None,,,,,Participant 03,001,2025-10-03_20h30.41.100,Motor sequence task,,2025.1.1,59.943197818903734,2025-10-03 20h50.21.138034 +0530,
-150,z,87,3,21,z,1,0.4835818000137806,None,21,3,87,3,,,,,215.12770650000311,,215.11171730002388,215.12770650000311,216.1117532000062,216.1117532000062,216.1117532000062,216.1117532000062,216.12847200001124,217.11411399999633,217.11411399999633,217.61488279997138,z,1,0.4835818000137806,None,,,,,Participant 03,001,2025-10-03_20h30.41.100,Motor sequence task,,2025.1.1,59.943197818903734,2025-10-03 20h50.21.138034 +0530,
-50,x,88,0,22,x,1,0.2615304000210017,None,22,0,88,0,,,,,217.63110609998694,,217.61529919999884,217.63110609998694,218.6150473000016,218.6150473000016,218.6150473000016,218.6150473000016,218.63196069997502,219.61596879997524,219.61596879997524,219.88426899997285,x,1,0.2615304000210017,None,,,,,Participant 03,001,2025-10-03_20h30.41.100,Motor sequence task,,2025.1.1,59.943197818903734,2025-10-03 20h50.21.138034 +0530,
150,v,89,1,22,v,1,0.33797750005032867,None,22,1,89,1,,,,,219.8992129000253,,219.88466380001046,219.8992129000253,220.88406950002536,220.88406950002536,220.88406950002536,220.88406950002536,220.90115659998264,221.88515769998776,221.88515769998776,222.23619369999506,v,1,0.33797750005032867,None,,,,,Participant 03,001,2025-10-03_20h30.41.100,Motor sequence task,,2025.1.1,59.943197818903734,2025-10-03 20h50.21.138034 +0530,
50,c,90,2,22,c,1,0.5920346999773756,None,22,2,90,2,,,,,222.2526275999844,,222.2364985999884,222.2526275999844,223.23652999999467,223.23652999999467,223.23652999999467,223.23652999999467,223.2533733000164,224.23747240001103,224.23747240001103,224.83929149998585,c,1,0.5920346999773756,None,,,,,Participant 03,001,2025-10-03_20h30.41.100,Motor sequence task,,2025.1.1,59.943197818903734,2025-10-03 20h50.21.138034 +0530,
-150,z,91,3,22,z,1,0.3603933000122197,None,22,3,91,3,,,,,224.85542859998532,,224.83969300001627,224.85542859998532,225.83940930000972,225.83940930000972,225.83940930000972,225.83940930000972,225.856105200015,226.84051950002322,226.84051950002322,227.20715089997975,z,1,0.3603933000122197,None,,,,,Participant 03,001,2025-10-03_20h30.41.100,Motor sequence task,,2025.1.1,59.943197818903734,2025-10-03 20h50.21.138034 +0530,
-50,x,92,0,23,x,1,0.37589060002937913,None,23,0,92,0,,,,,227.22447830002056,,227.20744899997953,227.22447830002056,228.20886449998943,228.20886449998943,228.20886449998943,228.20886449998943,228.22525690001203,229.2104549999931,229.2104549999931,229.59394809999503,x,1,0.37589060002937913,None,,,,,Participant 03,001,2025-10-03_20h30.41.100,Motor sequence task,,2025.1.1,59.943197818903734,2025-10-03 20h50.21.138034 +0530,
150,v,93,1,23,v,1,0.3313440000056289,None,23,1,93,1,,,,,229.61042889999226,,229.59443029999966,229.61042889999226,230.5942949000164,230.5942949000164,230.5942949000164,230.5942949000164,230.6110728000058,231.59623329999158,231.59623329999158,231.93030830001226,v,1,0.3313440000056289,None,,,,,Participant 03,001,2025-10-03_20h30.41.100,Motor sequence task,,2025.1.1,59.943197818903734,2025-10-03 20h50.21.138034 +0530,
50,c,94,2,23,c,1,0.4160841000266373,None,23,2,94,2,,,,,231.94664320000447,,231.93071139999665,231.94664320000447,232.9308483999921,232.9308483999921,232.9308483999921,232.9308483999921,232.94780359999277,233.9315593999927,233.9315593999927,234.3555790000246,c,1,0.4160841000266373,None,,,,,Participant 03,001,2025-10-03_20h30.41.100,Motor sequence task,,2025.1.1,59.943197818903734,2025-10-03 20h50.21.138034 +0530,
-150,z,95,3,23,z,1,0.3540542999980971,None,23,3,95,3,,,,,234.3652037999709,,234.35590480000246,234.3652037999709,235.366962399974,235.366962399974,235.366962399974,235.366962399974,235.366962399974,236.3681240999722,236.3681240999722,236.73554979998153,z,1,0.3540542999980971,None,,,,,Participant 03,001,2025-10-03_20h30.41.100,Motor sequence task,,2025.1.1,59.943197818903734,2025-10-03 20h50.21.138034 +0530,
-50,x,96,0,24,x,1,0.4351425000349991,None,24,0,96,0,,,,,236.75188160000835,,236.73591669998132,236.75188160000835,237.73583999997936,237.73583999997936,237.73583999997936,237.73583999997936,237.7525807999773,238.7367610000074,238.7367610000074,239.18885099998442,x,1,0.4351425000349991,None,,,,,Participant 03,001,2025-10-03_20h30.41.100,Motor sequence task,,2025.1.1,59.943197818903734,2025-10-03 20h50.21.138034 +0530,
150,v,97,1,24,v,1,0.4139355000224896,None,24,1,97,1,,,,,239.2037337999791,,239.18925070000114,239.2037337999791,240.18879109999398,240.18879109999398,240.18879109999398,240.18879109999398,240.20558619999792,241.18982019997202,241.18982019997202,241.607802500017,v,1,0.4139355000224896,None,,,,,Participant 03,001,2025-10-03_20h30.41.100,Motor sequence task,,2025.1.1,59.943197818903734,2025-10-03 20h50.21.138034 +0530,
50,c,98,2,24,c,1,0.41216020000865683,None,24,2,98,2,,,,,241.62420590000693,,241.6082166999695,241.62420590000693,242.60821450001094,242.60821450001094,242.60821450001094,242.60821450001094,242.62513190001482,243.6091610000003,243.6091610000003,244.02727630001027,c,1,0.41216020000865683,None,,,,,Participant 03,001,2025-10-03_20h30.41.100,Motor sequence task,,2025.1.1,59.943197818903734,2025-10-03 20h50.21.138034 +0530,
-150,z,99,3,24,z,1,0.48764479998499155,None,24,3,99,3,,,,,244.04361210000934,,244.02766660001362,244.04361210000934,245.0275145000196,245.0275145000196,245.0275145000196,245.0275145000196,245.04436180001358,246.02833990001818,246.02833990001818,246.52919109998038,z,1,0.48764479998499155,None,,,,,Participant 03,001,2025-10-03_20h30.41.100,Motor sequence task,,2025.1.1,59.943197818903734,2025-10-03 20h50.21.138034 +0530,
50,c,0,0,0,c,1,0.8952351000043564,None,,,,,0,0,0,2,246.54569280002033,,246.53444730001502,246.54569280002033,247.52965450001648,247.52965450001648,247.52965450001648,247.52965450001648,247.54639899998438,248.53069739998318,248.53069739998318,249.4323766999878,,,,,c,1,0.8952351000043564,None,Participant 03,001,2025-10-03_20h30.41.100,Motor sequence task,,2025.1.1,59.943197818903734,2025-10-03 20h50.21.138034 +0530,
-50,x,1,1,0,x,1,0.3390883000101894,None,,,,,0,1,1,0,249.44859819998965,,249.43277030001627,249.44859819998965,250.43282990000444,250.43282990000444,250.43282990000444,250.43282990000444,250.44959739997284,251.43463079998037,251.43463079998037,251.78579210001044,,,,,x,1,0.3390883000101894,None,Participant 03,001,2025-10-03_20h30.41.100,Motor sequence task,,2025.1.1,59.943197818903734,2025-10-03 20h50.21.138034 +0530,
150,v,2,2,0,v,1,0.5125410999753512,None,,,,,0,2,2,1,251.80108930001734,,251.78619600000093,251.80108930001734,252.78617450001184,252.78617450001184,252.78617450001184,252.78617450001184,252.80285739997635,253.78678249998484,253.78678249998484,254.30438180000056,,,,,v,1,0.5125410999753512,None,Participant 03,001,2025-10-03_20h30.41.100,Motor sequence task,,2025.1.1,59.943197818903734,2025-10-03 20h50.21.138034 +0530,
50,c,3,3,1,c,1,0.525590099976398,None,,,,,1,3,3,2,254.32103880000068,,254.30469349998748,254.32103880000068,255.30510130000766,255.30510130000766,255.30510130000766,255.30510130000766,255.3217826000182,256.30589349998627,256.30589349998627,256.8404460999882,,,,,c,1,0.525590099976398,None,Participant 03,001,2025-10-03_20h30.41.100,Motor sequence task,,2025.1.1,59.943197818903734,2025-10-03 20h50.21.138034 +0530,
-50,x,4,4,1,x,1,0.689926800027024,None,,,,,1,4,4,0,256.856656900025,,256.8408758000005,256.856656900025,257.8418015000061,257.8418015000061,257.8418015000061,257.8418015000061,257.8575755999773,258.84288910002215,258.84288910002215,259.5440564000164,,,,,x,1,0.689926800027024,None,Participant 03,001,2025-10-03_20h30.41.100,Motor sequence task,,2025.1.1,59.943197818903734,2025-10-03 20h50.21.138034 +0530,
150,v,5,5,1,v,1,0.45634869998320937,None,,,,,1,5,5,1,259.5604915000149,,259.5444362999988,259.5604915000149,260.54458950000117,260.54458950000117,260.54458950000117,260.54458950000117,260.56144640001,261.54532640002435,261.54532640002435,262.012917199987,,,,,v,1,0.45634869998320937,None,Participant 03,001,2025-10-03_20h30.41.100,Motor sequence task,,2025.1.1,59.943197818903734,2025-10-03 20h50.21.138034 +0530,
-150,z,6,6,0,z,1,0.8682643999927677,None,,,,,0,6,6,3,262.0289772999822,,262.01335530000506,262.0289772999822,263.0142143999692,263.0142143999692,263.0142143999692,263.0142143999692,263.03137609997066,264.0152880999958,264.0152880999958,264.900024499977,,,,,z,1,0.8682643999927677,None,Participant 03,001,2025-10-03_20h30.41.100,Motor sequence task,,2025.1.1,59.943197818903734,2025-10-03 20h50.21.138034 +0530,
50,c,7,7,2,c,1,0.478570600040257,None,,,,,2,7,7,2,264.9153376999893,,264.900443600025,264.9153376999893,265.9004281000234,265.9004281000234,265.9004281000234,265.9004281000234,265.9172419999959,266.9012709999806,266.9012709999806,267.3854738000082,,,,,c,1,0.478570600040257,None,Participant 03,001,2025-10-03_20h30.41.100,Motor sequence task,,2025.1.1,59.943197818903734,2025-10-03 20h50.21.138034 +0530,
-50,x,8,8,2,x,1,0.9258085999754258,None,,,,,2,8,8,0,267.4018068999867,,267.38581260002684,267.4018068999867,268.38585660001263,268.38585660001263,268.38585660001263,268.38585660001263,268.40258629998425,269.3892461999785,269.3892461999785,270.3223471000092,,,,,x,1,0.9258085999754258,None,Participant 03,001,2025-10-03_20h30.41.100,Motor sequence task,,2025.1.1,59.943197818903734,2025-10-03 20h50.21.138034 +0530,
50,c,9,9,3,c,1,0.6143414999824017,None,,,,,3,9,9,2,270.3384619000135,,270.32278480002424,270.3384619000135,271.3228803999955,271.3228803999955,271.3228803999955,271.3228803999955,271.33931890001986,272.32423149998067,272.32423149998067,272.9420237999875,,,,,c,1,0.6143414999824017,None,Participant 03,001,2025-10-03_20h30.41.100,Motor sequence task,,2025.1.1,59.943197818903734,2025-10-03 20h50.21.138034 +0530,
-150,z,10,10,1,z,1,0.6086675000260584,None,,,,,1,10,10,3,272.9580584000214,,272.94244620000245,272.9580584000214,273.9423943000147,273.9423943000147,273.9423943000147,273.9423943000147,273.9590231999755,274.9432730000117,274.9432730000117,275.56153589999303,,,,,z,1,0.6086675000260584,None,Participant 03,001,2025-10-03_20h30.41.100,Motor sequence task,,2025.1.1,59.943197818903734,2025-10-03 20h50.21.138034 +0530,
-150,z,11,11,2,z,1,0.3979290000279434,None,,,,,2,11,11,3,275.57759110000916,,275.56191390001914,275.57759110000916,276.56219969998347,276.56219969998347,276.56219969998347,276.56219969998347,276.57861019996926,277.5630837000208,277.5630837000208,277.96399860002566,,,,,z,1,0.3979290000279434,None,Participant 03,001,2025-10-03_20h30.41.100,Motor sequence task,,2025.1.1,59.943197818903734,2025-10-03 20h50.21.138034 +0530,
50,c,12,12,4,c,1,0.5644323999877088,None,,,,,4,12,12,2,277.9804270999739,,277.96440200001234,277.9804270999739,278.9645165000111,278.9645165000111,278.9645165000111,278.9645165000111,278.9815177000128,279.96535870002117,279.96535870002117,280.533395299979,,,,,c,1,0.5644323999877088,None,Participant 03,001,2025-10-03_20h30.41.100,Motor sequence task,,2025.1.1,59.943197818903734,2025-10-03 20h50.21.138034 +0530,
-50,x,13,13,3,x,1,0.5243696999968961,None,,,,,3,13,13,0,280.5499235999887,,280.53382030001376,280.5499235999887,281.5339038000093,281.5339038000093,281.5339038000093,281.5339038000093,281.5508334999904,282.53540370002156,282.53540370002156,283.0693203000119,,,,,x,1,0.5243696999968961,None,Participant 03,001,2025-10-03_20h30.41.100,Motor sequence task,,2025.1.1,59.943197818903734,2025-10-03 20h50.21.138034 +0530,
150,v,14,14,2,v,1,0.6544472000095993,None,,,,,2,14,14,1,283.0857618000009,,283.06970539997565,283.0857618000009,284.0705610999721,284.0705610999721,284.0705610999721,284.0705610999721,284.0863765000249,285.07164089998696,285.07164089998696,285.7394691000227,,,,,v,1,0.6544472000095993,None,Participant 03,001,2025-10-03_20h30.41.100,Motor sequence task,,2025.1.1,59.943197818903734,2025-10-03 20h50.21.138034 +0530,
150,v,15,15,3,v,1,0.5287354000029154,None,,,,,3,15,15,1,285.7557280000183,,285.7399323999998,285.7557280000183,286.7397000999772,286.7397000999772,286.7397000999772,286.7397000999772,286.75688639999134,287.7406540000229,287.7406540000229,288.2750056000077,,,,,v,1,0.5287354000029154,None,Participant 03,001,2025-10-03_20h30.41.100,Motor sequence task,,2025.1.1,59.943197818903734,2025-10-03 20h50.21.138034 +0530,
-150,z,16,16,3,z,1,0.4774652000050992,None,,,,,3,16,16,3,288.29142710001906,,288.2754378999816,288.29142710001906,289.275647500006,289.275647500006,289.275647500006,289.275647500006,289.2924037000048,290.2777097999933,290.2777097999933,290.7616389999748,,,,,z,1,0.4774652000050992,None,Participant 03,001,2025-10-03_20h30.41.100,Motor sequence task,,2025.1.1,59.943197818903734,2025-10-03 20h50.21.138034 +0530,
-50,x,17,17,4,x,1,0.6221578000113368,None,,,,,4,17,17,0,290.77803079999285,,290.76202680001734,290.77803079999285,291.76206689997343,291.76206689997343,291.76206689997343,291.76206689997343,291.77910430001793,292.76291160000255,292.76291160000255,293.3972656999831,,,,,x,1,0.6221578000113368,None,Participant 03,001,2025-10-03_20h30.41.100,Motor sequence task,,2025.1.1,59.943197818903734,2025-10-03 20h50.21.138034 +0530,
-50,x,18,18,5,x,1,0.41653509996831417,None,,,,,5,18,18,0,293.4138847999857,,293.3977111999993,293.4138847999857,294.3987529000151,294.3987529000151,294.3987529000151,294.3987529000151,294.41435799998,295.3995464000036,295.3995464000036,295.816607100016,,,,,x,1,0.41653509996831417,None,Participant 03,001,2025-10-03_20h30.41.100,Motor sequence task,,2025.1.1,59.943197818903734,2025-10-03 20h50.21.138034 +0530,
50,c,19,19,5,c,1,0.39394400001037866,None,,,,,5,19,19,2,295.833094600006,,295.8170437000226,295.833094600006,296.81735249998746,296.81735249998746,296.81735249998746,296.81735249998746,296.83490120002534,297.8190983000095,297.8190983000095,298.22003600001335,,,,,c,1,0.39394400001037866,None,Participant 03,001,2025-10-03_20h30.41.100,Motor sequence task,,2025.1.1,59.943197818903734,2025-10-03 20h50.21.138034 +0530,
-150,z,20,20,4,z,1,0.5365140999783762,None,,,,,4,20,20,3,298.2353170000133,,298.22047790000215,298.2353170000133,299.2206998000038,299.2206998000038,299.2206998000038,299.2206998000038,299.2373790999991,300.2215202000225,300.2215202000225,300.7726309999707,,,,,z,1,0.5365140999783762,None,Participant 03,001,2025-10-03_20h30.41.100,Motor sequence task,,2025.1.1,59.943197818903734,2025-10-03 20h50.21.138034 +0530,
50,c,21,21,6,c,1,0.409940000041388,None,,,,,6,21,21,2,300.78905409999425,,300.7729385999846,300.78905409999425,301.7730535999872,301.7730535999872,301.7730535999872,301.7730535999872,301.78997310000705,302.7739685999695,302.7739685999695,303.1921493000118,,,,,c,1,0.409940000041388,None,Participant 03,001,2025-10-03_20h30.41.100,Motor sequence task,,2025.1.1,59.943197818903734,2025-10-03 20h50.21.138034 +0530,
-50,x,22,22,6,x,1,0.5153243000386283,None,,,,,6,22,22,0,303.2074749000021,,303.19258309999714,303.2074749000021,304.19241780001903,304.19241780001903,304.19241780001903,304.19241780001903,304.2091574000078,305.1935665999772,305.1935665999772,305.7112023999798,,,,,x,1,0.5153243000386283,None,Participant 03,001,2025-10-03_20h30.41.100,Motor sequence task,,2025.1.1,59.943197818903734,2025-10-03 20h50.21.138034 +0530,
150,v,23,23,4,v,1,0.4234199000056833,None,,,,,4,23,23,1,305.7275632999954,,305.7116377999773,305.7275632999954,306.71160510001937,306.71160510001937,306.71160510001937,306.71160510001937,306.7282573999837,307.712422600016,307.712422600016,308.1474343999871,,,,,v,1,0.4234199000056833,None,Participant 03,001,2025-10-03_20h30.41.100,Motor sequence task,,2025.1.1,59.943197818903734,2025-10-03 20h50.21.138034 +0530,
-150,z,24,24,5,z,1,0.5480932000209577,None,,,,,5,24,24,3,308.16366810002364,,308.1479496000102,308.16366810002364,309.14752639998915,309.14752639998915,309.14752639998915,309.14752639998915,309.1642385000014,310.14869010000257,310.14869010000257,310.69964940001955,,,,,z,1,0.5480932000209577,None,Participant 03,001,2025-10-03_20h30.41.100,Motor sequence task,,2025.1.1,59.943197818903734,2025-10-03 20h50.21.138034 +0530,
150,v,25,25,5,v,1,0.5847352999844588,None,,,,,5,25,25,1,310.7160330999759,,310.6999558000243,310.7160330999759,311.70027059997665,311.70027059997665,311.70027059997665,311.70027059997665,311.71720349998213,312.7012111999793,312.7012111999793,313.30273629998555,,,,,v,1,0.5847352999844588,None,Participant 03,001,2025-10-03_20h30.41.100,Motor sequence task,,2025.1.1,59.943197818903734,2025-10-03 20h50.21.138034 +0530,
-50,x,26,26,7,x,1,0.41643159999512136,None,,,,,7,26,26,0,313.31901279999875,,313.30307209998136,313.31901279999875,314.3043752000085,314.3043752000085,314.3043752000085,314.3043752000085,314.31987850001315,315.30513860000065,315.30513860000065,315.73885500000324,,,,,x,1,0.41643159999512136,None,Participant 03,001,2025-10-03_20h30.41.100,Motor sequence task,,2025.1.1,59.943197818903734,2025-10-03 20h50.21.138034 +0530,
50,c,27,27,7,c,1,0.9031075999955647,None,,,,,7,27,27,2,315.75557829998434,,315.7391708000214,315.75557829998434,316.7392616000143,316.7392616000143,316.7392616000143,316.7392616000143,316.7560086000012,317.74014289997285,317.74014289997285,318.6585567999864,,,,,c,1,0.9031075999955647,None,Participant 03,001,2025-10-03_20h30.41.100,Motor sequence task,,2025.1.1,59.943197818903734,2025-10-03 20h50.21.138034 +0530,
-150,z,28,28,6,z,1,0.8953865999937989,None,,,,,6,28,28,3,318.67501319997245,,318.6588655000087,318.67501319997245,319.6591573000187,319.6591573000187,319.6591573000187,319.6591573000187,319.6759610999725,320.66012449999107,320.66012449999107,321.5618506000028,,,,,z,1,0.8953865999937989,None,Participant 03,001,2025-10-03_20h30.41.100,Motor sequence task,,2025.1.1,59.943197818903734,2025-10-03 20h50.21.138034 +0530,
150,v,29,29,6,v,1,1.5090978000080213,None,,,,,6,29,29,1,321.57795260002604,,321.5623222999857,321.57795260002604,322.56217569997534,322.56217569997534,322.56217569997534,322.56217569997534,322.57899629999883,323.56308360002004,323.56308360002004,325.0826457000221,,,,,v,1,1.5090978000080213,None,Participant 03,001,2025-10-03_20h30.41.100,Motor sequence task,,2025.1.1,59.943197818903734,2025-10-03 20h50.21.138034 +0530,
50,c,30,30,8,c,1,1.2183875000337139,None,,,,,8,30,30,2,325.09878000000026,,325.08311130001675,325.09878000000026,326.0831132999738,326.0831132999738,326.0831132999738,326.0831132999738,326.1001266000094,327.0839838000247,327.0839838000247,328.3193329999922,,,,,c,1,1.2183875000337139,None,Participant 03,001,2025-10-03_20h30.41.100,Motor sequence task,,2025.1.1,59.943197818903734,2025-10-03 20h50.21.138034 +0530,
50,c,31,31,9,c,1,0.4416167000308633,None,,,,,9,31,31,2,328.3355840999866,,328.31971210002666,328.3355840999866,329.3197337000165,329.3197337000165,329.3197337000165,329.3197337000165,329.33662580000237,330.32053899997845,330.32053899997845,330.77229380002245,,,,,c,1,0.4416167000308633,None,Participant 03,001,2025-10-03_20h30.41.100,Motor sequence task,,2025.1.1,59.943197818903734,2025-10-03 20h50.21.138034 +0530,
-50,x,32,32,8,x,1,0.8312159000197425,None,,,,,8,32,32,0,330.78866339998785,,330.77273409999907,330.78866339998785,331.7727388999774,331.7727388999774,331.7727388999774,331.7727388999774,331.78942539996933,332.77354600001127,332.77354600001127,333.6081656999886,,,,,x,1,0.8312159000197425,None,Participant 03,001,2025-10-03_20h30.41.100,Motor sequence task,,2025.1.1,59.943197818903734,2025-10-03 20h50.21.138034 +0530,
50,c,33,33,10,c,1,0.8271928000031039,None,,,,,10,33,33,2,333.62463039997965,,333.6085218000226,333.62463039997965,334.60868930001743,334.60868930001743,334.60868930001743,334.60868930001743,334.625564499991,335.61045450001257,335.61045450001257,336.44501039996976,,,,,c,1,0.8271928000031039,None,Participant 03,001,2025-10-03_20h30.41.100,Motor sequence task,,2025.1.1,59.943197818903734,2025-10-03 20h50.21.138034 +0530,
150,v,34,34,7,v,1,0.4140156999928877,None,,,,,7,34,34,1,336.461320900009,,336.4453891000012,336.461320900009,337.4453955999925,337.4453955999925,337.4453955999925,337.4453955999925,337.4621631000191,338.4463212999981,338.4463212999981,338.8645391999744,,,,,v,1,0.4140156999928877,None,Participant 03,001,2025-10-03_20h30.41.100,Motor sequence task,,2025.1.1,59.943197818903734,2025-10-03 20h50.21.138034 +0530,
-150,z,35,35,7,z,1,1.1725761000416242,None,,,,,7,35,35,3,338.88111120002577,,338.8649456999847,338.88111120002577,339.8647208000184,339.8647208000184,339.8647208000184,339.8647208000184,339.8813240000163,340.86570750002284,340.86570750002284,342.0512097000028,,,,,z,1,1.1725761000416242,None,Participant 03,001,2025-10-03_20h30.41.100,Motor sequence task,,2025.1.1,59.943197818903734,2025-10-03 20h50.21.138034 +0530,
50,c,36,36,11,c,1,0.4901598000433296,None,,,,,11,36,36,2,342.06696630001534,,342.0515974999871,342.06696630001534,343.0523778999923,343.0523778999923,343.0523778999923,343.0523778999923,343.0680147000239,344.0531645999872,344.0531645999872,344.55425270000705,,,,,c,1,0.4901598000433296,None,Participant 03,001,2025-10-03_20h30.41.100,Motor sequence task,,2025.1.1,59.943197818903734,2025-10-03 20h50.21.138034 +0530,
-150,z,37,37,8,z,1,1.0266564999474213,None,,,,,8,37,37,3,344.56922339997254,,344.5546578000067,344.56922339997254,345.5544291000115,345.5544291000115,345.5544291000115,345.5544291000115,345.5710320000071,346.5554887999897,346.5554887999897,347.59024130000034,,,,,z,1,1.0266564999474213,None,Participant 03,001,2025-10-03_20h30.41.100,Motor sequence task,,2025.1.1,59.943197818903734,2025-10-03 20h50.21.138034 +0530,
-150,z,38,38,9,z,1,0.9383011000463739,None,,,,,9,38,38,3,347.606527899974,,347.590573799971,347.606527899974,348.59059239999624,348.59059239999624,348.59059239999624,348.59059239999624,348.60843000002205,349.59172770002624,349.59172770002624,350.5435837000259,,,,,z,1,0.9383011000463739,None,Participant 03,001,2025-10-03_20h30.41.100,Motor sequence task,,2025.1.1,59.943197818903734,2025-10-03 20h50.21.138034 +0530,
50,c,39,39,12,c,1,0.7065034999977797,None,,,,,12,39,39,2,350.55985080002574,,350.5439579000231,350.55985080002574,351.5439943000092,351.5439943000092,351.5439943000092,351.5439943000092,351.56092909997096,352.54604799998924,352.54604799998924,353.2628011999768,,,,,c,1,0.7065034999977797,None,Participant 03,001,2025-10-03_20h30.41.100,Motor sequence task,,2025.1.1,59.943197818903734,2025-10-03 20h50.21.138034 +0530,
-50,x,40,40,9,x,1,0.7449076999910176,None,,,,,9,40,40,0,353.27921369997784,,353.2631748999702,353.27921369997784,354.26347429997986,354.26347429997986,354.26347429997986,354.26347429997986,354.2802328999969,355.265495700005,355.265495700005,356.0160335000255,,,,,x,1,0.7449076999910176,None,Participant 03,001,2025-10-03_20h30.41.100,Motor sequence task,,2025.1.1,59.943197818903734,2025-10-03 20h50.21.138034 +0530,
50,c,41,41,13,c,1,0.7512756999931298,None,,,,,13,41,41,2,356.03271689999383,,356.01635210000677,356.03271689999383,357.01754739996977,357.01754739996977,357.01754739996977,357.01754739996977,357.0332142999978,358.01822450000327,358.01822450000327,358.78560060000746,,,,,c,1,0.7512756999931298,None,Participant 03,001,2025-10-03_20h30.41.100,Motor sequence task,,2025.1.1,59.943197818903734,2025-10-03 20h50.21.138034 +0530,
-150,z,42,42,10,z,1,1.0298116999911144,None,,,,,10,42,42,3,358.80200020002667,,358.78591779997805,358.80200020002667,359.786202999996,359.786202999996,359.786202999996,359.786202999996,359.8029144000029,360.78813719999744,360.78813719999744,361.8232018999988,,,,,z,1,1.0298116999911144,None,Participant 03,001,2025-10-03_20h30.41.100,Motor sequence task,,2025.1.1,59.943197818903734,2025-10-03 20h50.21.138034 +0530,
150,v,43,43,8,v,1,1.0568764000199735,None,,,,,8,43,43,1,361.8393824999803,,361.8236725999741,361.8393824999803,362.8233084999956,362.8233084999956,362.8233084999956,362.8233084999956,362.8403292999719,363.82433039997704,363.82433039997704,364.8928794999956,,,,,v,1,1.0568764000199735,None,Participant 03,001,2025-10-03_20h30.41.100,Motor sequence task,,2025.1.1,59.943197818903734,2025-10-03 20h50.21.138034 +0530,
-50,x,44,44,10,x,1,0.8340412999968976,None,,,,,10,44,44,0,364.9093079000013,,364.8932571000187,364.9093079000013,365.89324060000945,365.89324060000945,365.89324060000945,365.89324060000945,365.90974530001404,366.89418830000795,366.89418830000795,367.72973309998633,,,,,x,1,0.8340412999968976,None,Participant 03,001,2025-10-03_20h30.41.100,Motor sequence task,,2025.1.1,59.943197818903734,2025-10-03 20h50.21.138034 +0530,
-50,x,45,45,11,x,1,0.8057705999817699,None,,,,,11,45,45,0,367.74497900001006,,367.7301267000148,367.74497900001006,368.7301440999727,368.7301440999727,368.7301440999727,368.7301440999727,368.74700769997435,369.73107019998133,369.73107019998133,370.5491402000189,,,,,x,1,0.8057705999817699,None,Participant 03,001,2025-10-03_20h30.41.100,Motor sequence task,,2025.1.1,59.943197818903734,2025-10-03 20h50.21.138034 +0530,
-150,z,46,46,11,z,1,1.263626599975396,None,,,,,11,46,46,3,370.5654098999803,,370.5494750000071,370.5654098999803,371.54963909997605,371.54963909997605,371.54963909997605,371.54963909997605,371.56600069999695,372.5502545000054,372.5502545000054,373.81911139999283,,,,,z,1,1.263626599975396,None,Participant 03,001,2025-10-03_20h30.41.100,Motor sequence task,,2025.1.1,59.943197818903734,2025-10-03 20h50.21.138034 +0530,
50,c,47,47,14,c,1,0.8456323000136763,None,,,,,14,47,47,2,373.8352787999902,,373.8194998999825,373.8352787999902,374.8193210000172,374.8193210000172,374.8193210000172,374.8193210000172,374.83621729997685,375.82056650001323,375.82056650001323,376.6729637000244,,,,,c,1,0.8456323000136763,None,Participant 03,001,2025-10-03_20h30.41.100,Motor sequence task,,2025.1.1,59.943197818903734,2025-10-03 20h50.21.138034 +0530,
150,v,48,48,9,v,1,0.9951461000018753,None,,,,,9,48,48,1,376.6880597000127,,376.6735262000002,376.6880597000127,377.6732563999831,377.6732563999831,377.6732563999831,377.6732563999831,377.69021680002334,378.67396440001903,378.67396440001903,379.67541269998765,,,,,v,1,0.9951461000018753,None,Participant 03,001,2025-10-03_20h30.41.100,Motor sequence task,,2025.1.1,59.943197818903734,2025-10-03 20h50.21.138034 +0530,
-50,x,49,49,12,x,1,0.5656696999794804,None,,,,,12,49,49,0,379.69201900000917,,379.67580229998566,379.69201900000917,380.67584679997526,380.67584679997526,380.67584679997526,380.67584679997526,380.69296289997874,381.6783507000073,381.6783507000073,382.245034600026,,,,,x,1,0.5656696999794804,None,Participant 03,001,2025-10-03_20h30.41.100,Motor sequence task,,2025.1.1,59.943197818903734,2025-10-03 20h50.21.138034 +0530,
150,v,50,50,10,v,1,0.7278342000208795,None,,,,,10,50,50,1,382.26110409997636,,382.2454127999954,382.26110409997636,383.2461584000266,383.2461584000266,383.2461584000266,383.2461584000266,383.2633520999807,384.2472745999694,384.2472745999694,384.98137699998915,,,,,v,1,0.7278342000208795,None,Participant 03,001,2025-10-03_20h30.41.100,Motor sequence task,,2025.1.1,59.943197818903734,2025-10-03 20h50.21.138034 +0530,
50,c,51,51,15,c,1,0.5195389000000432,None,,,,,15,51,51,2,384.99739939998835,,384.98183060000883,384.99739939998835,385.9825592999696,385.9825592999696,385.9825592999696,385.9825592999696,385.9982114000013,386.9835930999834,386.9835930999834,387.51795519998996,,,,,c,1,0.5195389000000432,None,Participant 03,001,2025-10-03_20h30.41.100,Motor sequence task,,2025.1.1,59.943197818903734,2025-10-03 20h50.21.138034 +0530,
-50,x,52,52,13,x,1,1.1564180999994278,None,,,,,13,52,52,0,387.53429919999326,,387.5183331000153,387.53429919999326,388.5174982000026,388.5174982000026,388.5174982000026,388.5174982000026,388.5353100000066,389.5192153999815,389.5192153999815,390.687370700005,,,,,x,1,1.1564180999994278,None,Participant 03,001,2025-10-03_20h30.41.100,Motor sequence task,,2025.1.1,59.943197818903734,2025-10-03 20h50.21.138034 +0530,
-50,x,53,53,14,x,1,0.7033763999934308,None,,,,,14,53,53,0,390.70375250000507,,390.68780850002076,390.70375250000507,391.68882480001776,391.68882480001776,391.68882480001776,391.68882480001776,391.70463499997277,392.68981080001686,392.68981080001686,393.40791549999267,,,,,x,1,0.7033763999934308,None,Participant 03,001,2025-10-03_20h30.41.100,Motor sequence task,,2025.1.1,59.943197818903734,2025-10-03 20h50.21.138034 +0530,
-150,z,54,54,12,z,1,0.385617199994158,None,,,,,12,54,54,3,393.4231171999709,,393.4082281999872,393.4231171999709,394.4083077000105,394.4083077000105,394.4083077000105,394.4083077000105,394.4250702999998,395.4090174000012,395.4090174000012,395.8113346999744,,,,,z,1,0.385617199994158,None,Participant 03,001,2025-10-03_20h30.41.100,Motor sequence task,,2025.1.1,59.943197818903734,2025-10-03 20h50.21.138034 +0530,
-50,x,55,55,15,x,1,0.4364757999428548,None,,,,,15,55,55,0,395.82662609999534,,395.8116444000043,395.82662609999534,396.8109470999916,396.8109470999916,396.8109470999916,396.8109470999916,396.8276028999826,397.8116755000083,397.8116755000083,398.2623632000177,,,,,x,1,0.4364757999428548,None,Participant 03,001,2025-10-03_20h30.41.100,Motor sequence task,,2025.1.1,59.943197818903734,2025-10-03 20h50.21.138034 +0530,
50,c,56,56,16,c,1,1.159002500004135,None,,,,,16,56,56,2,398.27870089997305,,398.2626838000142,398.27870089997305,399.263808800024,399.263808800024,399.263808800024,399.263808800024,399.27963720000116,400.2646973999799,400.2646973999799,401.4326733999769,,,,,c,1,1.159002500004135,None,Participant 03,001,2025-10-03_20h30.41.100,Motor sequence task,,2025.1.1,59.943197818903734,2025-10-03 20h50.21.138034 +0530,
150,v,57,57,11,v,1,0.3773275000276044,None,,,,,11,57,57,1,401.44916299998295,,401.43300119997,401.44916299998295,402.4334161999868,402.4334161999868,402.4334161999868,402.4334161999868,402.4500249000266,403.4341218000045,403.4341218000045,403.8184018000029,,,,,v,1,0.3773275000276044,None,Participant 03,001,2025-10-03_20h30.41.100,Motor sequence task,,2025.1.1,59.943197818903734,2025-10-03 20h50.21.138034 +0530,
50,c,58,58,17,c,1,0.6351254999754019,None,,,,,17,58,58,2,403.8347809999832,,403.81871790002333,403.8347809999832,404.8189915000112,404.8189915000112,404.8189915000112,404.8189915000112,404.8357551000081,405.8210356999771,405.8210356999771,406.47135269996943,,,,,c,1,0.6351254999754019,None,Participant 03,001,2025-10-03_20h30.41.100,Motor sequence task,,2025.1.1,59.943197818903734,2025-10-03 20h50.21.138034 +0530,
150,v,59,59,12,v,1,0.6678301999927498,None,,,,,12,59,59,1,406.4882429999998,,406.4716806000215,406.4882429999998,407.47221340000397,407.47221340000397,407.47221340000397,407.47221340000397,407.48920489999,408.4732994000078,408.4732994000078,409.15761669998756,,,,,v,1,0.6678301999927498,None,Participant 03,001,2025-10-03_20h30.41.100,Motor sequence task,,2025.1.1,59.943197818903734,2025-10-03 20h50.21.138034 +0530,
50,c,60,60,18,c,1,0.9814761999878101,None,,,,,18,60,60,2,409.1740374999936,,409.15792179998243,409.1740374999936,410.15920320001896,410.15920320001896,410.15920320001896,410.15920320001896,410.1748630999937,411.1601756999735,411.1601756999735,412.144457300019,,,,,c,1,0.9814761999878101,None,Participant 03,001,2025-10-03_20h30.41.100,Motor sequence task,,2025.1.1,59.943197818903734,2025-10-03 20h50.21.138034 +0530,
50,c,61,61,19,c,1,0.4425803000340238,None,,,,,19,61,61,2,412.16113329998916,,412.14480359997833,412.16113329998916,413.1444268000196,413.1444268000196,413.1444268000196,413.1444268000196,413.16205410001567,414.1460062999977,414.1460062999977,414.59770599997137,,,,,c,1,0.4425803000340238,None,Participant 03,001,2025-10-03_20h30.41.100,Motor sequence task,,2025.1.1,59.943197818903734,2025-10-03 20h50.21.138034 +0530,
150,v,62,62,13,v,1,0.5062046999810264,None,,,,,13,62,62,1,414.6140573999728,,414.5981838000007,414.6140573999728,415.598007099994,415.598007099994,415.598007099994,415.598007099994,415.6148745000246,416.59887859999435,416.59887859999435,417.1166048999876,,,,,v,1,0.5062046999810264,None,Participant 03,001,2025-10-03_20h30.41.100,Motor sequence task,,2025.1.1,59.943197818903734,2025-10-03 20h50.21.138034 +0530,
-150,z,63,63,13,z,1,1.8119223999674432,None,,,,,13,63,63,3,417.13303819997236,,417.11699559999397,417.13303819997236,418.11699640000006,418.11699640000006,418.11699640000006,418.11699640000006,418.13402449997375,419.11906880000606,419.11906880000606,420.93740569998045,,,,,z,1,1.8119223999674432,None,Participant 03,001,2025-10-03_20h30.41.100,Motor sequence task,,2025.1.1,59.943197818903734,2025-10-03 20h50.21.138034 +0530,
-50,x,64,64,16,x,1,0.42679970001336187,None,,,,,16,64,64,0,420.9539907000144,,420.93786910001654,420.9539907000144,421.93814280000515,421.93814280000515,421.93814280000515,421.93814280000515,421.95476029999554,422.9389328000252,422.9389328000252,423.3737899999833,,,,,x,1,0.42679970001336187,None,Participant 03,001,2025-10-03_20h30.41.100,Motor sequence task,,2025.1.1,59.943197818903734,2025-10-03 20h50.21.138034 +0530,
-50,x,65,65,17,x,1,0.4414043000433594,None,,,,,17,65,65,0,423.39009970001644,,423.3741635999759,423.39009970001644,424.37422140000854,424.37422140000854,424.37422140000854,424.37422140000854,424.3909768000012,425.37492979998933,425.37492979998933,425.82675880001625,,,,,x,1,0.4414043000433594,None,Participant 03,001,2025-10-03_20h30.41.100,Motor sequence task,,2025.1.1,59.943197818903734,2025-10-03 20h50.21.138034 +0530,
-50,x,66,66,18,x,1,0.4743719000252895,None,,,,,18,66,66,0,425.8419901999878,,425.82713910000166,425.8419901999878,426.82719480001833,426.82719480001833,426.82719480001833,426.82719480001833,426.8438989999704,427.8279780999874,427.8279780999874,428.3122246999992,,,,,x,1,0.4743719000252895,None,Participant 03,001,2025-10-03_20h30.41.100,Motor sequence task,,2025.1.1,59.943197818903734,2025-10-03 20h50.21.138034 +0530,
-150,z,67,67,14,z,1,0.5330905000446364,None,,,,,14,67,67,3,428.32842189999064,,428.312608200009,428.32842189999064,429.3126234000083,429.3126234000083,429.3126234000083,429.3126234000083,429.3293326999992,430.3145652000094,430.3145652000094,430.849169299996,,,,,z,1,0.5330905000446364,None,Participant 03,001,2025-10-03_20h30.41.100,Motor sequence task,,2025.1.1,59.943197818903734,2025-10-03 20h50.21.138034 +0530,
150,v,68,68,14,v,1,0.500737400026992,None,,,,,14,68,68,1,430.8643474999699,,430.8494911000016,430.8643474999699,431.8497282000026,431.8497282000026,431.8497282000026,431.8497282000026,431.8662464999943,432.85026510001626,432.85026510001626,433.36820339999394,,,,,v,1,0.500737400026992,None,Participant 03,001,2025-10-03_20h30.41.100,Motor sequence task,,2025.1.1,59.943197818903734,2025-10-03 20h50.21.138034 +0530,
150,v,69,69,15,v,1,0.5441174000152387,None,,,,,15,69,69,1,433.38427290000254,,433.36855810001725,433.38427290000254,434.3683989000274,434.3683989000274,434.3683989000274,434.3683989000274,434.38524979999056,435.36936559999594,435.36936559999594,435.9204452999984,,,,,v,1,0.5441174000152387,None,Participant 03,001,2025-10-03_20h30.41.100,Motor sequence task,,2025.1.1,59.943197818903734,2025-10-03 20h50.21.138034 +0530,
-50,x,70,70,19,x,1,1.1451047000009567,None,,,,,19,70,70,0,435.93767399998615,,435.92076080001425,435.93767399998615,436.9210044000065,436.9210044000065,436.9210044000065,436.9210044000065,436.9379699000274,437.9219818999991,437.9219818999991,439.07476819999283,,,,,x,1,1.1451047000009567,None,Participant 03,001,2025-10-03_20h30.41.100,Motor sequence task,,2025.1.1,59.943197818903734,2025-10-03 20h50.21.138034 +0530,
-50,x,71,71,20,x,1,0.6793163999682292,None,,,,,20,71,71,0,439.090804699983,,439.0752179999836,439.090804699983,440.0746935000061,440.0746935000061,440.0746935000061,440.0746935000061,440.0918604999897,441.07555439998396,441.07555439998396,441.76037119998364,,,,,x,1,0.6793163999682292,None,Participant 03,001,2025-10-03_20h30.41.100,Motor sequence task,,2025.1.1,59.943197818903734,2025-10-03 20h50.21.138034 +0530,
50,c,72,72,20,c,1,0.6949854000122286,None,,,,,20,72,72,2,441.7764752000221,,441.7607664000243,441.7764752000221,442.76073649997124,442.76073649997124,442.76073649997124,442.76073649997124,442.7775050000055,443.76249529997585,443.76249529997585,444.46417270001257,,,,,c,1,0.6949854000122286,None,Participant 03,001,2025-10-03_20h30.41.100,Motor sequence task,,2025.1.1,59.943197818903734,2025-10-03 20h50.21.138034 +0530,
-150,z,73,73,15,z,1,0.9595244999509305,None,,,,,15,73,73,3,444.480352899991,,444.46460740000475,444.480352899991,445.46447549998993,445.46447549998993,445.46447549998993,445.46447549998993,445.4811883000075,446.46518589998595,446.46518589998595,447.4328709000256,,,,,z,1,0.9595244999509305,None,Participant 03,001,2025-10-03_20h30.41.100,Motor sequence task,,2025.1.1,59.943197818903734,2025-10-03 20h50.21.138034 +0530,
50,c,74,74,21,c,1,0.8152098000282422,None,,,,,21,74,74,2,447.4492441000184,,447.43320039997343,447.4492441000184,448.43456510000397,448.43456510000397,448.43456510000397,448.43456510000397,448.4507529999828,449.43536800000584,449.43536800000584,450.2530097999843,,,,,c,1,0.8152098000282422,None,Participant 03,001,2025-10-03_20h30.41.100,Motor sequence task,,2025.1.1,59.943197818903734,2025-10-03 20h50.21.138034 +0530,
-150,z,75,75,16,z,1,2.0238333000452258,None,,,,,16,75,75,3,450.2695655999705,,450.2534507000237,450.2695655999705,451.25372580002295,451.25372580002295,451.25372580002295,451.25372580002295,451.27004929998657,452.25440829998115,452.25440829998115,454.291476399987,,,,,z,1,2.0238333000452258,None,Participant 03,001,2025-10-03_20h30.41.100,Motor sequence task,,2025.1.1,59.943197818903734,2025-10-03 20h50.21.138034 +0530,
-150,z,76,76,17,z,1,0.4311508000246249,None,,,,,17,76,76,3,454.3067965999944,,454.2919219000032,454.3067965999944,455.29178420000244,455.29178420000244,455.29178420000244,455.29178420000244,455.3086569000152,456.2925684999791,456.2925684999791,456.72640300000785,,,,,z,1,0.4311508000246249,None,Participant 03,001,2025-10-03_20h30.41.100,Motor sequence task,,2025.1.1,59.943197818903734,2025-10-03 20h50.21.138034 +0530,
150,v,77,77,16,v,1,0.6131075999583118,None,,,,,16,77,77,1,456.74310949997744,,456.72672119998606,456.74310949997744,457.72798610001337,457.72798610001337,457.72798610001337,457.72798610001337,457.74470789998304,458.7284565999871,458.7284565999871,459.3462133000139,,,,,v,1,0.6131075999583118,None,Participant 03,001,2025-10-03_20h30.41.100,Motor sequence task,,2025.1.1,59.943197818903734,2025-10-03 20h50.21.138034 +0530,
150,v,78,78,17,v,1,0.7004497000016272,None,,,,,17,78,78,1,459.3624395999941,,459.34656660002656,459.3624395999941,460.3465439999709,460.3465439999709,460.3465439999709,460.3465439999709,460.3632598000113,461.3484171999735,461.3484171999735,462.0496630999842,,,,,v,1,0.7004497000016272,None,Participant 03,001,2025-10-03_20h30.41.100,Motor sequence task,,2025.1.1,59.943197818903734,2025-10-03 20h50.21.138034 +0530,
-150,z,79,79,18,z,1,0.874738399987109,None,,,,,18,79,79,3,462.06639859999996,,462.04999869997846,462.06639859999996,463.0503503999789,463.0503503999789,463.0503503999789,463.0503503999789,463.0672296999837,464.0510446000262,464.0510446000262,464.936040200002,,,,,z,1,0.874738399987109,None,Participant 03,001,2025-10-03_20h30.41.100,Motor sequence task,,2025.1.1,59.943197818903734,2025-10-03 20h50.21.138034 +0530,
-50,x,80,80,21,x,1,0.6034118000534363,None,,,,,21,80,80,0,464.9523245000164,,464.93642980000004,464.9523245000164,465.9363160000066,465.9363160000066,465.9363160000066,465.9363160000066,465.9531208000262,466.9377105999738,466.9377105999738,467.55583889997797,,,,,x,1,0.6034118000534363,None,Participant 03,001,2025-10-03_20h30.41.100,Motor sequence task,,2025.1.1,59.943197818903734,2025-10-03 20h50.21.138034 +0530,
50,c,81,81,22,c,1,0.47755599999800324,None,,,,,22,81,81,2,467.57214910001494,,467.5561583000235,467.57214910001494,468.5562790000113,468.5562790000113,468.5562790000113,468.5562790000113,468.5734777000034,469.5571451999713,469.5571451999713,470.04126019997057,,,,,c,1,0.47755599999800324,None,Participant 03,001,2025-10-03_20h30.41.100,Motor sequence task,,2025.1.1,59.943197818903734,2025-10-03 20h50.21.138034 +0530,
50,c,82,82,23,c,1,0.49036729999352247,None,,,,,23,82,82,2,470.05752400000347,,470.0415708000073,470.05752400000347,471.0416434999788,471.0416434999788,471.0416434999788,471.0416434999788,471.0584915999789,472.04360149998683,472.04360149998683,472.5447029999923,,,,,c,1,0.49036729999352247,None,Participant 03,001,2025-10-03_20h30.41.100,Motor sequence task,,2025.1.1,59.943197818903734,2025-10-03 20h50.21.138034 +0530,
150,v,83,83,18,v,1,0.49670489999698475,None,,,,,18,83,83,1,472.56086319999304,,472.54511549999006,472.56086319999304,473.545283799991,473.545283799991,473.545283799991,473.545283799991,473.5616246999707,474.54585400002543,474.54585400002543,475.0469339999836,,,,,v,1,0.49670489999698475,None,Participant 03,001,2025-10-03_20h30.41.100,Motor sequence task,,2025.1.1,59.943197818903734,2025-10-03 20h50.21.138034 +0530,
-150,z,84,84,19,z,1,0.6059335000463761,None,,,,,19,84,84,3,475.0630388999707,,475.04736570001114,475.0630388999707,476.0472683000262,476.0472683000262,476.0472683000262,476.0472683000262,476.06511379999574,477.04906140000094,477.04906140000094,477.66642560000764,,,,,z,1,0.6059335000463761,None,Participant 03,001,2025-10-03_20h30.41.100,Motor sequence task,,2025.1.1,59.943197818903734,2025-10-03 20h50.21.138034 +0530,
-150,z,85,85,20,z,1,0.7113330999854952,None,,,,,20,85,85,3,477.6828664999921,,477.66673759999685,477.6828664999921,478.66850179998437,478.66850179998437,478.66850179998437,478.66850179998437,478.68422019999707,479.66793449997203,479.66793449997203,480.38618979998864,,,,,z,1,0.7113330999854952,None,Participant 03,001,2025-10-03_20h30.41.100,Motor sequence task,,2025.1.1,59.943197818903734,2025-10-03 20h50.21.138034 +0530,
50,c,86,86,24,c,1,1.5493571999832056,None,,,,,24,86,86,2,480.40241320000496,,480.38659369997913,480.40241320000496,481.3873868000228,481.3873868000228,481.3873868000228,481.3873868000228,481.4031575000263,482.3883472000016,482.3883472000016,483.9404191999929,,,,,c,1,1.5493571999832056,None,Participant 03,001,2025-10-03_20h30.41.100,Motor sequence task,,2025.1.1,59.943197818903734,2025-10-03 20h50.21.138034 +0530,
-150,z,87,87,21,lshift,0,0.848814399971161,None,,,,,21,87,87,3,483.9568298999802,,483.94076420000056,483.9568298999802,484.9400030000252,484.9400030000252,484.9400030000252,484.9400030000252,484.95795219996944,485.9417246999801,485.9417246999801,486.7931242000195,,,,,lshift,0,0.848814399971161,None,Participant 03,001,2025-10-03_20h30.41.100,Motor sequence task,,2025.1.1,59.943197818903734,2025-10-03 20h50.21.138034 +0530,
150,v,88,88,19,v,1,0.9162821000209078,None,,,,,19,88,88,1,486.8095313999802,,486.79346559999976,486.8095313999802,487.79379319999134,487.79379319999134,487.79379319999134,487.79379319999134,487.8102377000032,488.79648449999513,488.79648449999513,489.72961300000316,,,,,v,1,0.9162821000209078,None,Participant 03,001,2025-10-03_20h30.41.100,Motor sequence task,,2025.1.1,59.943197818903734,2025-10-03 20h50.21.138034 +0530,
-150,z,89,89,22,a,0,1.3397120999870822,None,,,,,22,89,89,3,489.7480202000006,,489.7299291000236,489.7480202000006,490.7301334000076,490.7301334000076,490.7301334000076,490.7301334000076,490.763675299997,491.7316730999737,491.7316730999737,493.0838679000153,,,,,a,0,1.3397120999870822,None,Participant 03,001,2025-10-03_20h30.41.100,Motor sequence task,,2025.1.1,59.943197818903734,2025-10-03 20h50.21.138034 +0530,
-50,x,90,90,22,x,1,0.5874634999781847,None,,,,,22,90,90,0,493.1002122000209,,493.08424559998093,493.1002122000209,494.08480750001036,494.08480750001036,494.08480750001036,494.08480750001036,494.1008631999721,495.0849745000014,495.0849745000014,495.6867793999845,,,,,x,1,0.5874634999781847,None,Participant 03,001,2025-10-03_20h30.41.100,Motor sequence task,,2025.1.1,59.943197818903734,2025-10-03 20h50.21.138034 +0530,
-150,z,91,91,23,z,1,0.6327313999645412,None,,,,,23,91,91,3,495.7020549000008,,495.68708130001323,495.7020549000008,496.6872618999914,496.6872618999914,496.6872618999914,496.6872618999914,496.7039023999823,497.688052100013,497.688052100013,498.32225490000565,,,,,z,1,0.6327313999645412,None,Participant 03,001,2025-10-03_20h30.41.100,Motor sequence task,,2025.1.1,59.943197818903734,2025-10-03 20h50.21.138034 +0530,
150,v,92,92,20,v,1,1.1233899999642745,None,,,,,20,92,92,1,498.338574399997,,498.3226402999717,498.338574399997,499.3236799999722,499.3236799999722,499.3236799999722,499.3236799999722,499.33960659999866,500.32495829998516,500.32495829998516,501.45920669997577,,,,,v,1,1.1233899999642745,None,Participant 03,001,2025-10-03_20h30.41.100,Motor sequence task,,2025.1.1,59.943197818903734,2025-10-03 20h50.21.138034 +0530,
150,v,93,93,21,v,1,0.7587682000012137,None,,,,,21,93,93,1,501.47545919998083,,501.4596014000126,501.47545919998083,502.45963860000484,502.45963860000484,502.45963860000484,502.45963860000484,502.4778274000273,503.46168870001566,503.46168870001566,504.2289883000194,,,,,v,1,0.7587682000012137,None,Participant 03,001,2025-10-03_20h30.41.100,Motor sequence task,,2025.1.1,59.943197818903734,2025-10-03 20h50.21.138034 +0530,
-150,z,94,94,24,z,1,0.5589217999950051,None,,,,,24,94,94,3,504.2452174000209,,504.2294107999769,504.2452174000209,505.2294814999914,505.2294814999914,505.2294814999914,505.2294814999914,505.24613350001164,506.23025899997447,506.23025899997447,506.7982800999889,,,,,z,1,0.5589217999950051,None,Participant 03,001,2025-10-03_20h30.41.100,Motor sequence task,,2025.1.1,59.943197818903734,2025-10-03 20h50.21.138034 +0530,
150,v,95,95,22,v,1,0.35124690004158765,None,,,,,22,95,95,1,506.81459449999966,,506.79858170001535,506.81459449999966,507.79956610000227,507.79956610000227,507.79956610000227,507.79956610000227,507.81544749997556,508.8013018000056,508.8013018000056,509.16747960000066,,,,,v,1,0.35124690004158765,None,Participant 03,001,2025-10-03_20h30.41.100,Motor sequence task,,2025.1.1,59.943197818903734,2025-10-03 20h50.21.138034 +0530,
-50,x,96,96,23,x,1,0.42986069998005405,None,,,,,23,96,96,0,509.18365339998854,,509.1679208999849,509.18365339998854,510.1688762999838,510.1688762999838,510.1688762999838,510.1688762999838,510.18572040001163,511.16964669997105,511.16964669997105,511.6036086999811,,,,,x,1,0.42986069998005405,None,Participant 03,001,2025-10-03_20h30.41.100,Motor sequence task,,2025.1.1,59.943197818903734,2025-10-03 20h50.21.138034 +0530,
-50,x,97,97,24,x,1,0.4868592999991961,None,,,,,24,97,97,0,511.6199729000218,,511.6041199999745,511.6199729000218,512.6049578000093,512.6049578000093,512.6049578000093,512.6049578000093,512.6210051000235,513.6060405999888,513.6060405999888,514.1070830000099,,,,,x,1,0.4868592999991961,None,Participant 03,001,2025-10-03_20h30.41.100,Motor sequence task,,2025.1.1,59.943197818903734,2025-10-03 20h50.21.138034 +0530,
150,v,98,98,23,v,1,0.4217147000017576,None,,,,,23,98,98,1,514.1229625000269,,514.1075847999891,514.1229625000269,515.107548,515.107548,515.107548,515.107548,515.1241803999874,516.1080872999737,516.1080872999737,516.5428949000197,,,,,v,1,0.4217147000017576,None,Participant 03,001,2025-10-03_20h30.41.100,Motor sequence task,,2025.1.1,59.943197818903734,2025-10-03 20h50.21.138034 +0530,
150,v,99,99,24,v,1,0.3941092999884859,None,,,,,24,99,99,1,516.5592230000184,,516.5432481999742,516.5592230000184,517.5432805999881,517.5432805999881,517.5432805999881,517.5432805999881,517.5617264999892,518.5442741999868,518.5442741999868,518.9455945999944,,,,,v,1,0.3941092999884859,None,Participant 03,001,2025-10-03_20h30.41.100,Motor sequence task,,2025.1.1,59.943197818903734,2025-10-03 20h50.21.138034 +0530,
