pos,corr_resp,thisN,thisTrialN,thisRepN,key_resp.keys,key_resp.corr,key_resp.rt,key_resp.duration,trials.thisRepN,trials.thisTrialN,trials.thisN,trials.thisIndex,trials_2.thisRepN,trials_2.thisTrialN,trials_2.thisN,trials_2.thisIndex,thisRow.t,notes,trial.started,fixation.started,line1.started,line2.started,line3.started,line4.started,fixation.stopped,probe.started,key_resp.started,trial.stopped,trials.key_resp.keys,trials.key_resp.corr,trials.key_resp.rt,trials.key_resp.duration,trials_2.key_resp.keys,trials_2.key_resp.corr,trials_2.key_resp.rt,trials_2.key_resp.duration,participant,session,date,expName,expVersion,psychopyVersion,frameRate,expStart,
-50,x,0,0,0,x,1,0.8119143000221811,None,0,0,0,0,,,,,0.016471299983095378,,0.012199199991300702,0.016471299983095378,1.0148315000114962,1.0148315000114962,1.0148315000114962,1.0148315000114962,1.0316599999787286,1.9982551999855787,1.9982551999855787,2.833999899972696,x,1,0.8119143000221811,None,,,,,Participant 05,001,2025-10-04_23h51.45.541,Motor sequence task,,2025.1.1,59.930839814476265,2025-10-04 23h51.57.942065 +0530,
150,v,1,1,0,v,1,0.368224999983795,None,0,1,1,1,,,,,2.8398853999678977,,2.8343217999790795,2.8398853999678977,3.8340398999862373,3.8340398999862373,3.8340398999862373,3.8340398999862373,3.8518640999682248,4.835789999982808,4.835789999982808,5.220490099978633,v,1,0.368224999983795,None,,,,,Participant 05,001,2025-10-04_23h51.45.541,Motor sequence task,,2025.1.1,59.930839814476265,2025-10-04 23h51.57.942065 +0530,
50,c,2,2,0,c,1,0.3553350000292994,None,0,2,2,2,,,,,5.235684000013862,,5.220933699980378,5.235684000013862,6.220773599983659,6.220773599983659,6.220773599983659,6.220773599983659,6.237604999972973,7.222582100017462,7.222582100017462,7.589214399980847,c,1,0.3553350000292994,None,,,,,Participant 05,001,2025-10-04_23h51.45.541,Motor sequence task,,2025.1.1,59.930839814476265,2025-10-04 23h51.57.942065 +0530,
-150,z,3,3,0,z,1,0.3256256000022404,None,0,3,3,3,,,,,7.605581899988465,,7.58952139999019,7.605581899988465,8.58980730001349,8.58980730001349,8.58980730001349,8.58980730001349,8.60671059996821,9.590549500018824,9.590549500018824,9.924658800009638,z,1,0.3256256000022404,None,,,,,Participant 05,001,2025-10-04_23h51.45.541,Motor sequence task,,2025.1.1,59.930839814476265,2025-10-04 23h51.57.942065 +0530,
-50,x,4,0,1,x,1,0.3419199999771081,None,1,0,4,0,,,,,9.94118460000027,,9.925022999988869,9.94118460000027,10.925125600013416,10.925125600013416,10.925125600013416,10.925125600013416,10.941870999988168,11.92710899998201,11.92710899998201,12.277993600000627,x,1,0.3419199999771081,None,,,,,Participant 05,001,2025-10-04_23h51.45.541,Motor sequence task,,2025.1.1,59.930839814476265,2025-10-04 23h51.57.942065 +0530,
150,v,5,1,1,v,1,0.06128629995509982,None,1,1,5,1,,,,,12.293269900023006,,12.278294899966568,12.293269900023006,13.278545600012876,13.278545600012876,13.278545600012876,13.278545600012876,13.295194700011052,14.279340600012802,14.279340600012802,14.346922900003847,v,1,0.06128629995509982,None,,,,,Participant 05,001,2025-10-04_23h51.45.541,Motor sequence task,,2025.1.1,59.930839814476265,2025-10-04 23h51.57.942065 +0530,
50,c,6,2,1,c,1,0.29123529995558783,None,1,2,6,2,,,,,14.362166800012346,,14.347230200015474,14.362166800012346,15.347453099966515,15.347453099966515,15.347453099966515,15.347453099966515,15.364143599988893,16.34834349999437,16.34834349999437,16.648754599969834,c,1,0.29123529995558783,None,,,,,Participant 05,001,2025-10-04_23h51.45.541,Motor sequence task,,2025.1.1,59.930839814476265,2025-10-04 23h51.57.942065 +0530,
-150,z,7,3,1,z,1,0.18799020000733435,None,1,3,7,3,,,,,16.665290499979164,,16.64907529996708,16.665290499979164,17.649369599996135,17.649369599996135,17.649369599996135,17.649369599996135,17.66628890001448,18.65100439998787,18.65100439998787,18.852187699987553,z,1,0.18799020000733435,None,,,,,Participant 05,001,2025-10-04_23h51.45.541,Motor sequence task,,2025.1.1,59.930839814476265,2025-10-04 23h51.57.942065 +0530,
-50,x,8,0,2,x,1,0.30219979997491464,None,2,0,8,0,,,,,18.86726179998368,,18.85262810002314,18.86726179998368,19.852450900012627,19.852450900012627,19.852450900012627,19.852450900012627,19.869252600008622,20.85329709999496,20.85329709999496,21.170544799999334,x,1,0.30219979997491464,None,,,,,Participant 05,001,2025-10-04_23h51.45.541,Motor sequence task,,2025.1.1,59.930839814476265,2025-10-04 23h51.57.942065 +0530,
150,v,9,1,2,v,1,0.0047061999794095755,None,2,1,9,1,,,,,21.186963999993168,,21.170990400016308,21.186963999993168,22.171005100011826,22.171005100011826,22.171005100011826,22.171005100011826,22.187865099986084,23.17210799996974,23.17210799996974,23.189118599984795,v,1,0.0047061999794095755,None,,,,,Participant 05,001,2025-10-04_23h51.45.541,Motor sequence task,,2025.1.1,59.930839814476265,2025-10-04 23h51.57.942065 +0530,
50,c,10,2,2,c,1,0.39607419999083504,None,2,2,10,2,,,,,23.205401799990796,,23.189432699989993,23.205401799990796,24.191160599992145,24.191160599992145,24.191160599992145,24.191160599992145,24.207248899969272,25.191613900009543,25.191613900009543,25.591999399999622,c,1,0.39607419999083504,None,,,,,Participant 05,001,2025-10-04_23h51.45.541,Motor sequence task,,2025.1.1,59.930839814476265,2025-10-04 23h51.57.942065 +0530,
-150,z,11,3,2,z,1,0.33912110002711415,None,2,3,11,3,,,,,25.608345000015106,,25.592404499999247,25.608345000015106,26.59327920002397,26.59327920002397,26.59327920002397,26.59327920002397,26.610249699966516,27.594470000010915,27.594470000010915,27.945109499967657,z,1,0.33912110002711415,None,,,,,Participant 05,001,2025-10-04_23h51.45.541,Motor sequence task,,2025.1.1,59.930839814476265,2025-10-04 23h51.57.942065 +0530,
-50,x,12,0,3,x,1,0.25870369997574016,None,3,0,12,0,,,,,27.961512100009713,,27.945634500007145,27.961512100009713,28.945364299986977,28.945364299986977,28.945364299986977,28.945364299986977,28.96211520000361,29.946477000019513,29.946477000019513,30.214652299997397,x,1,0.25870369997574016,None,,,,,Participant 05,001,2025-10-04_23h51.45.541,Motor sequence task,,2025.1.1,59.930839814476265,2025-10-04 23h51.57.942065 +0530,
150,v,13,1,3,v,1,0.28148399997735396,None,3,1,13,1,,,,,30.230823699967004,,30.215058800007682,30.230823699967004,31.21477199997753,31.21477199997753,31.21477199997753,31.21477199997753,31.231552099983674,32.215430499985814,32.215430499985814,32.499452899966855,v,1,0.28148399997735396,None,,,,,Participant 05,001,2025-10-04_23h51.45.541,Motor sequence task,,2025.1.1,59.930839814476265,2025-10-04 23h51.57.942065 +0530,
50,c,14,2,3,c,1,0.32465359999332577,None,3,2,14,2,,,,,32.51576699997531,,32.49975929997163,32.51576699997531,33.50093320000451,33.50093320000451,33.50093320000451,33.50093320000451,33.5168316999916,34.501763799984474,34.501763799984474,34.83574820001377,c,1,0.32465359999332577,None,,,,,Participant 05,001,2025-10-04_23h51.45.541,Motor sequence task,,2025.1.1,59.930839814476265,2025-10-04 23h51.57.942065 +0530,
-150,z,15,3,3,z,1,0.30144300003303215,None,3,3,15,3,,,,,34.85214009997435,,34.836135099991225,34.85214009997435,35.836320200003684,35.836320200003684,35.836320200003684,35.836320200003684,35.85306120000314,36.83744709996972,36.83744709996972,37.154538200004026,z,1,0.30144300003303215,None,,,,,Participant 05,001,2025-10-04_23h51.45.541,Motor sequence task,,2025.1.1,59.930839814476265,2025-10-04 23h51.57.942065 +0530,
-50,x,16,0,4,x,1,0.3110663999686949,None,4,0,16,0,,,,,37.17114910000237,,37.15485200000694,37.17114910000237,38.15598759998102,38.15598759998102,38.15598759998102,38.15598759998102,38.17179340001894,39.15698650002014,39.15698650002014,39.47405339998659,x,1,0.3110663999686949,None,,,,,Participant 05,001,2025-10-04_23h51.45.541,Motor sequence task,,2025.1.1,59.930839814476265,2025-10-04 23h51.57.942065 +0530,
150,v,17,1,4,v,1,0.2787199000013061,None,4,1,17,1,,,,,39.49051289999625,,39.474441699974705,39.49051289999625,40.47451039997395,40.47451039997395,40.47451039997395,40.47451039997395,40.49157080001896,41.47543320001569,41.47543320001569,41.76001779997023,v,1,0.2787199000013061,None,,,,,Participant 05,001,2025-10-04_23h51.45.541,Motor sequence task,,2025.1.1,59.930839814476265,2025-10-04 23h51.57.942065 +0530,
50,c,18,2,4,c,1,0.31997280003270134,None,4,2,18,2,,,,,41.77635850000661,,41.760453999973834,41.77635850000661,42.760691899980884,42.760691899980884,42.760691899980884,42.760691899980884,42.77750169998035,43.761487199983094,43.761487199983094,44.09587419999298,c,1,0.31997280003270134,None,,,,,Participant 05,001,2025-10-04_23h51.45.541,Motor sequence task,,2025.1.1,59.930839814476265,2025-10-04 23h51.57.942065 +0530,
-150,z,19,3,4,z,1,0.3822470000013709,None,4,3,19,3,,,,,44.11195240000961,,44.096273400005884,44.11195240000961,45.09613730001729,45.09613730001729,45.09613730001729,45.09613730001729,45.11288929998409,46.0982327000238,46.0982327000238,46.48201600002358,z,1,0.3822470000013709,None,,,,,Participant 05,001,2025-10-04_23h51.45.541,Motor sequence task,,2025.1.1,59.930839814476265,2025-10-04 23h51.57.942065 +0530,
-50,x,20,0,5,x,1,0.39566959999501705,None,5,0,20,0,,,,,46.497967800009064,,46.48243859998183,46.497967800009064,47.48186790000182,47.48186790000182,47.48186790000182,47.48186790000182,47.49876940000104,48.48379410000052,48.48379410000052,48.88399920001393,x,1,0.39566959999501705,None,,,,,Participant 05,001,2025-10-04_23h51.45.541,Motor sequence task,,2025.1.1,59.930839814476265,2025-10-04 23h51.57.942065 +0530,
150,v,21,1,5,v,1,0.36461140000028536,None,5,1,21,1,,,,,48.90033689996926,,48.88437280000653,48.90033689996926,49.88528380001662,49.88528380001662,49.88528380001662,49.88528380001662,49.9023721999838,50.88649120001355,50.88649120001355,51.254189100000076,v,1,0.36461140000028536,None,,,,,Participant 05,001,2025-10-04_23h51.45.541,Motor sequence task,,2025.1.1,59.930839814476265,2025-10-04 23h51.57.942065 +0530,
50,c,22,2,5,c,1,0.09608839999418706,None,5,2,22,2,,,,,51.270576199982315,,51.254697799973655,51.270576199982315,52.25455269997474,52.25455269997474,52.25455269997474,52.25455269997474,52.271369399968535,53.25534149998566,53.25534149998566,53.35698909999337,c,1,0.09608839999418706,None,,,,,Participant 05,001,2025-10-04_23h51.45.541,Motor sequence task,,2025.1.1,59.930839814476265,2025-10-04 23h51.57.942065 +0530,
-150,z,23,3,5,z,1,0.31713069998659194,None,5,3,23,3,,,,,53.371070399996825,,53.357359000016004,53.371070399996825,54.35700109996833,54.35700109996833,54.35700109996833,54.35700109996833,54.37390509998659,55.357978000014555,55.357978000014555,55.692057300009765,z,1,0.31713069998659194,None,,,,,Participant 05,001,2025-10-04_23h51.45.541,Motor sequence task,,2025.1.1,59.930839814476265,2025-10-04 23h51.57.942065 +0530,
-50,x,24,0,6,x,1,0.19374399998923764,None,6,0,24,0,,,,,55.70837649999885,,55.69245159998536,55.70837649999885,56.69256649998715,56.69256649998715,56.69256649998715,56.69256649998715,56.709208599990234,57.693379700009245,57.693379700009245,57.89410169998882,x,1,0.19374399998923764,None,,,,,Participant 05,001,2025-10-04_23h51.45.541,Motor sequence task,,2025.1.1,59.930839814476265,2025-10-04 23h51.57.942065 +0530,
150,v,25,1,6,v,1,0.3461987000191584,None,6,1,25,1,,,,,57.910402600013185,,57.894482799980324,57.910402600013185,58.894499099988025,58.894499099988025,58.894499099988025,58.894499099988025,58.911283100023866,59.89557569997851,59.89557569997851,60.246586599969305,v,1,0.3461987000191584,None,,,,,Participant 05,001,2025-10-04_23h51.45.541,Motor sequence task,,2025.1.1,59.930839814476265,2025-10-04 23h51.57.942065 +0530,
50,c,26,2,6,c,1,0.2868352999794297,None,6,2,26,2,,,,,60.263590799993835,,60.247159000020474,60.263590799993835,61.24790730001405,61.24790730001405,61.24790730001405,61.24790730001405,61.26474110002164,62.24841519998154,62.24841519998154,62.549476900021546,c,1,0.2868352999794297,None,,,,,Participant 05,001,2025-10-04_23h51.45.541,Motor sequence task,,2025.1.1,59.930839814476265,2025-10-04 23h51.57.942065 +0530,
-150,z,27,3,6,z,1,0.2687535000150092,None,6,3,27,3,,,,,62.56545230001211,,62.55010549997678,62.56545230001211,63.549708499980625,63.549708499980625,63.549708499980625,63.549708499980625,63.566486299969256,64.55168360000243,64.55168360000243,64.8351220000186,z,1,0.2687535000150092,None,,,,,Participant 05,001,2025-10-04_23h51.45.541,Motor sequence task,,2025.1.1,59.930839814476265,2025-10-04 23h51.57.942065 +0530,
-50,x,28,0,7,x,1,0.3258816000306979,None,7,0,28,0,,,,,64.85167689999798,,64.83553290000418,64.85167689999798,65.83585689996835,65.83585689996835,65.83585689996835,65.83585689996835,65.85257889999775,66.83671299996786,66.83671299996786,67.16951659996994,x,1,0.3258816000306979,None,,,,,Participant 05,001,2025-10-04_23h51.45.541,Motor sequence task,,2025.1.1,59.930839814476265,2025-10-04 23h51.57.942065 +0530,
150,v,29,1,7,v,1,0.295186500006821,None,7,1,29,1,,,,,67.18725129996892,,67.1699779999908,67.18725129996892,68.17234719998669,68.17234719998669,68.17234719998669,68.17234719998669,68.18823029997293,69.17323870002292,69.17323870002292,69.47364280000329,v,1,0.295186500006821,None,,,,,Participant 05,001,2025-10-04_23h51.45.541,Motor sequence task,,2025.1.1,59.930839814476265,2025-10-04 23h51.57.942065 +0530,
50,c,30,2,7,c,1,0.13203909998992458,None,7,2,30,2,,,,,69.49012420000508,,69.47395539999707,69.49012420000508,70.47419290000107,70.47419290000107,70.47419290000107,70.47419290000107,70.4909098999924,71.474985799985,71.474985799985,71.61004589998629,c,1,0.13203909998992458,None,,,,,Participant 05,001,2025-10-04_23h51.45.541,Motor sequence task,,2025.1.1,59.930839814476265,2025-10-04 23h51.57.942065 +0530,
-150,z,31,3,7,z,1,0.29257039999356493,None,7,3,31,3,,,,,71.62609550001798,,71.61045460001333,71.62609550001798,72.61011559999315,72.61011559999315,72.61011559999315,72.61011559999315,72.62710290000541,73.61102609999944,73.61102609999944,73.9116491000168,z,1,0.29257039999356493,None,,,,,Participant 05,001,2025-10-04_23h51.45.541,Motor sequence task,,2025.1.1,59.930839814476265,2025-10-04 23h51.57.942065 +0530,
-50,x,32,0,8,x,1,0.3117618000251241,None,8,0,32,0,,,,,73.92790150002111,,73.91202739998698,73.92790150002111,74.91206820000662,74.91206820000662,74.91206820000662,74.91206820000662,74.92880029999651,75.91389989998424,75.91389989998424,76.2314122999669,x,1,0.3117618000251241,None,,,,,Participant 05,001,2025-10-04_23h51.45.541,Motor sequence task,,2025.1.1,59.930839814476265,2025-10-04 23h51.57.942065 +0530,
150,v,33,1,8,v,1,0.3519499999820255,None,8,1,33,1,,,,,76.2474817999755,,76.23175159998937,76.2474817999755,77.23154619999696,77.23154619999696,77.23154619999696,77.23154619999696,77.24877379997633,78.2325880000135,78.2325880000135,78.60024080000585,v,1,0.3519499999820255,None,,,,,Participant 05,001,2025-10-04_23h51.45.541,Motor sequence task,,2025.1.1,59.930839814476265,2025-10-04 23h51.57.942065 +0530,
50,c,34,2,8,c,1,0.3472464000224136,None,8,2,34,2,,,,,78.61658630002057,,78.60066039999947,78.61658630002057,79.60097979998682,79.60097979998682,79.60097979998682,79.60097979998682,79.61785589996725,80.60173150000628,80.60173150000628,80.95243150001625,c,1,0.3472464000224136,None,,,,,Participant 05,001,2025-10-04_23h51.45.541,Motor sequence task,,2025.1.1,59.930839814476265,2025-10-04 23h51.57.942065 +0530,
-150,z,35,3,8,z,1,0.23986309999600053,None,8,3,35,3,,,,,80.97013219998917,,80.95273660001112,80.97013219998917,81.95409279997693,81.95409279997693,81.95409279997693,81.95409279997693,81.96980359998997,82.95486980001442,82.95486980001442,83.20491390000097,z,1,0.23986309999600053,None,,,,,Participant 05,001,2025-10-04_23h51.45.541,Motor sequence task,,2025.1.1,59.930839814476265,2025-10-04 23h51.57.942065 +0530,
-50,x,36,0,9,x,1,0.19432729994878173,None,9,0,36,0,,,,,83.22143099998357,,83.20542630000273,83.22143099998357,84.2064812000026,84.2064812000026,84.2064812000026,84.2064812000026,84.22237969998969,85.20754660002422,85.20754660002422,85.40800360002322,x,1,0.19432729994878173,None,,,,,Participant 05,001,2025-10-04_23h51.45.541,Motor sequence task,,2025.1.1,59.930839814476265,2025-10-04 23h51.57.942065 +0530,
150,v,37,1,9,v,1,0.3023560000001453,None,9,1,37,1,,,,,85.42433259997051,,85.40837590000592,85.42433259997051,86.40872790000867,86.40872790000867,86.40872790000867,86.40872790000867,86.42557000002125,87.4095026999712,87.4095026999712,87.72746999998344,v,1,0.3023560000001453,None,,,,,Participant 05,001,2025-10-04_23h51.45.541,Motor sequence task,,2025.1.1,59.930839814476265,2025-10-04 23h51.57.942065 +0530,
50,c,38,2,9,c,1,0.30316300003323704,None,9,2,38,2,,,,,87.7431515000062,,87.72790349996649,87.7431515000062,88.72747829998843,88.72747829998843,88.72747829998843,88.72747829998843,88.74412569997367,89.72923519997858,89.72923519997858,90.04662069998449,c,1,0.30316300003323704,None,,,,,Participant 05,001,2025-10-04_23h51.45.541,Motor sequence task,,2025.1.1,59.930839814476265,2025-10-04 23h51.57.942065 +0530,
-150,z,39,3,9,z,1,0.33826350001618266,None,9,3,39,3,,,,,90.06292699999176,,90.04704769997625,90.06292699999176,91.04706790001364,91.04706790001364,91.04706790001364,91.04706790001364,91.06373569997959,92.04782719997456,92.04782719997456,92.39905040001031,z,1,0.33826350001618266,None,,,,,Participant 05,001,2025-10-04_23h51.45.541,Motor sequence task,,2025.1.1,59.930839814476265,2025-10-04 23h51.57.942065 +0530,
-50,x,40,0,10,x,1,0.2605260999989696,None,10,0,40,0,,,,,92.41503199998988,,92.39943819999462,92.41503199998988,93.39933970000129,93.39933970000129,93.39933970000129,93.39933970000129,93.41604909999296,94.40013399999589,94.40013399999589,94.66824829997495,x,1,0.2605260999989696,None,,,,,Participant 05,001,2025-10-04_23h51.45.541,Motor sequence task,,2025.1.1,59.930839814476265,2025-10-04 23h51.57.942065 +0530,
150,v,41,1,10,v,1,0.359410899982322,None,10,1,41,1,,,,,94.6844605000224,,94.66877709998516,94.6844605000224,95.66871040000115,95.66871040000115,95.66871040000115,95.66871040000115,95.68525889999,96.66963439999381,96.66963439999381,97.03722619998734,v,1,0.359410899982322,None,,,,,Participant 05,001,2025-10-04_23h51.45.541,Motor sequence task,,2025.1.1,59.930839814476265,2025-10-04 23h51.57.942065 +0530,
50,c,42,2,10,c,1,0.4529802000033669,None,10,2,42,2,,,,,97.0533067000215,,97.03772469999967,97.0533067000215,98.03865780000342,98.03865780000342,98.03865780000342,98.03865780000342,98.05434440000681,99.03929970000172,99.03929970000172,99.50672180001857,c,1,0.4529802000033669,None,,,,,Participant 05,001,2025-10-04_23h51.45.541,Motor sequence task,,2025.1.1,59.930839814476265,2025-10-04 23h51.57.942065 +0530,
-150,z,43,3,10,z,1,0.28022260003490373,None,10,3,43,3,,,,,99.52334770001471,,99.50722540001152,99.52334770001471,100.5073278999771,100.5073278999771,100.5073278999771,100.5073278999771,100.52392170001986,101.50804009998683,101.50804009998683,101.79263779998291,z,1,0.28022260003490373,None,,,,,Participant 05,001,2025-10-04_23h51.45.541,Motor sequence task,,2025.1.1,59.930839814476265,2025-10-04 23h51.57.942065 +0530,
-50,x,44,0,11,x,1,0.17567299999063835,None,11,0,44,0,,,,,101.80885699996725,,101.7929548000102,101.80885699996725,102.79373969999142,102.79373969999142,102.79373969999142,102.79373969999142,102.80953789997147,103.79421750002075,103.79421750002075,103.97821839997778,x,1,0.17567299999063835,None,,,,,Participant 05,001,2025-10-04_23h51.45.541,Motor sequence task,,2025.1.1,59.930839814476265,2025-10-04 23h51.57.942065 +0530,
150,v,45,1,11,v,1,0.3292591000208631,None,11,1,45,1,,,,,103.99467019998701,,103.97859319997951,103.99467019998701,104.9787318999879,104.9787318999879,104.9787318999879,104.9787318999879,104.99538219999522,105.97951859998284,105.97951859998284,106.313689099974,v,1,0.3292591000208631,None,,,,,Participant 05,001,2025-10-04_23h51.45.541,Motor sequence task,,2025.1.1,59.930839814476265,2025-10-04 23h51.57.942065 +0530,
50,c,46,2,11,c,1,0.3181316999834962,None,11,2,46,2,,,,,106.33018529997207,,106.31406750000315,106.33018529997207,107.31529070000397,107.31529070000397,107.31529070000397,107.31529070000397,107.33092769997893,108.31615440000314,108.31615440000314,108.65061349997995,c,1,0.3181316999834962,None,,,,,Participant 05,001,2025-10-04_23h51.45.541,Motor sequence task,,2025.1.1,59.930839814476265,2025-10-04 23h51.57.942065 +0530,
-150,z,47,3,11,z,1,0.4217979999957606,None,11,3,47,3,,,,,108.66560200002277,,108.65100429998711,108.66560200002277,109.65064740000525,109.65064740000525,109.65064740000525,109.65064740000525,109.66725779999979,110.6515690999804,110.6515690999804,111.0862947999849,z,1,0.4217979999957606,None,,,,,Participant 05,001,2025-10-04_23h51.45.541,Motor sequence task,,2025.1.1,59.930839814476265,2025-10-04 23h51.57.942065 +0530,
-50,x,48,0,12,x,1,0.4721416999818757,None,12,0,48,0,,,,,111.10268040001392,,111.08673839998664,111.10268040001392,112.0867467999924,112.0867467999924,112.0867467999924,112.0867467999924,112.1035039999988,113.08778369997162,113.08778369997162,113.57163209997816,x,1,0.4721416999818757,None,,,,,Participant 05,001,2025-10-04_23h51.45.541,Motor sequence task,,2025.1.1,59.930839814476265,2025-10-04 23h51.57.942065 +0530,
150,v,49,1,12,v,1,0.6327891999972053,None,12,1,49,1,,,,,113.58801840001252,,113.5720025000046,113.58801840001252,114.57329799997387,114.57329799997387,114.57329799997387,114.57329799997387,114.58896690001711,115.57428339996841,115.57428339996841,116.20826450001914,v,1,0.6327891999972053,None,,,,,Participant 05,001,2025-10-04_23h51.45.541,Motor sequence task,,2025.1.1,59.930839814476265,2025-10-04 23h51.57.942065 +0530,
50,c,50,2,12,c,1,0.2861294999602251,None,12,2,50,2,,,,,116.22449900000356,,116.20862410002155,116.22449900000356,117.20866790000582,117.20866790000582,117.20866790000582,117.20866790000582,117.22549330000766,118.20970479998505,118.20970479998505,118.51153099996736,c,1,0.2861294999602251,None,,,,,Participant 05,001,2025-10-04_23h51.45.541,Motor sequence task,,2025.1.1,59.930839814476265,2025-10-04 23h51.57.942065 +0530,
-150,z,51,3,12,z,1,0.6081423999858089,None,12,3,51,3,,,,,118.52756389998831,,118.51192560000345,118.52756389998831,119.51159569999436,119.51159569999436,119.51159569999436,119.51159569999436,119.52833190001547,120.51239519997034,120.51239519997034,121.1298140999861,z,1,0.6081423999858089,None,,,,,Participant 05,001,2025-10-04_23h51.45.541,Motor sequence task,,2025.1.1,59.930839814476265,2025-10-04 23h51.57.942065 +0530,
-50,x,52,0,13,x,1,0.5658441000268795,None,13,0,52,0,,,,,121.1462303000153,,121.13019100000383,121.1462303000153,122.13127140002325,122.13127140002325,122.13127140002325,122.13127140002325,122.14827269996749,123.1321987999836,123.1321987999836,123.7003970000078,x,1,0.5658441000268795,None,,,,,Participant 05,001,2025-10-04_23h51.45.541,Motor sequence task,,2025.1.1,59.930839814476265,2025-10-04 23h51.57.942065 +0530,
150,v,53,1,13,v,1,0.43065909994766116,None,13,1,53,1,,,,,123.71566069999244,,123.7009120999719,123.71566069999244,124.70069919998059,124.70069919998059,124.70069919998059,124.70069919998059,124.71765790000791,125.70165639999323,125.70165639999323,126.13640060002217,v,1,0.43065909994766116,None,,,,,Participant 05,001,2025-10-04_23h51.45.541,Motor sequence task,,2025.1.1,59.930839814476265,2025-10-04 23h51.57.942065 +0530,
50,c,54,2,13,c,1,0.32393060001777485,None,13,2,54,2,,,,,126.15163410000969,,126.13677450001705,126.15163410000969,127.13688339997316,127.13688339997316,127.13688339997316,127.13688339997316,127.15372840000782,128.13798320002388,128.13798320002388,128.471649300016,c,1,0.32393060001777485,None,,,,,Participant 05,001,2025-10-04_23h51.45.541,Motor sequence task,,2025.1.1,59.930839814476265,2025-10-04 23h51.57.942065 +0530,
-150,z,55,3,13,z,1,0.23762819997500628,None,13,3,55,3,,,,,128.48817059997236,,128.47197880002204,128.48817059997236,129.47244839998893,129.47244839998893,129.47244839998893,129.47244839998893,129.4890128999832,130.47322599997278,130.47322599997278,130.72428670001682,z,1,0.23762819997500628,None,,,,,Participant 05,001,2025-10-04_23h51.45.541,Motor sequence task,,2025.1.1,59.930839814476265,2025-10-04 23h51.57.942065 +0530,
-50,x,56,0,14,x,1,0.7102328999899328,None,14,0,56,0,,,,,130.7408182999934,,130.72463770001195,130.7408182999934,131.72488330001943,131.72488330001943,131.72488330001943,131.72488330001943,131.7414976999862,132.72585839999374,132.72585839999374,133.443771500024,x,1,0.7102328999899328,None,,,,,Participant 05,001,2025-10-04_23h51.45.541,Motor sequence task,,2025.1.1,59.930839814476265,2025-10-04 23h51.57.942065 +0530,
150,v,57,1,14,v,1,0.2361244999920018,None,14,1,57,1,,,,,133.45997779996833,,133.44414809998125,133.45997779996833,134.44431699998677,134.44431699998677,134.44431699998677,134.44431699998677,134.46092400001362,135.4451917000115,135.4451917000115,135.69653479999397,v,1,0.2361244999920018,None,,,,,Participant 05,001,2025-10-04_23h51.45.541,Motor sequence task,,2025.1.1,59.930839814476265,2025-10-04 23h51.57.942065 +0530,
50,c,58,2,14,c,1,0.4471636999514885,None,14,2,58,2,,,,,135.7129208999686,,135.6968589000171,135.7129208999686,136.69738779996987,136.69738779996987,136.69738779996987,136.69738779996987,136.7134517999948,137.69915060000494,137.69915060000494,138.14920350001194,c,1,0.4471636999514885,None,,,,,Participant 05,001,2025-10-04_23h51.45.541,Motor sequence task,,2025.1.1,59.930839814476265,2025-10-04 23h51.57.942065 +0530,
-150,z,59,3,14,z,1,0.3878697999753058,None,14,3,59,3,,,,,138.16567429999122,,138.14952189999167,138.16567429999122,139.14975839998806,139.14975839998806,139.14975839998806,139.14975839998806,139.16629590000957,140.15061090001836,140.15061090001836,140.55170559999533,z,1,0.3878697999753058,None,,,,,Participant 05,001,2025-10-04_23h51.45.541,Motor sequence task,,2025.1.1,59.930839814476265,2025-10-04 23h51.57.942065 +0530,
-50,x,60,0,15,x,1,1.1135966000147164,None,15,0,60,0,,,,,140.56838690000586,,140.55201370001305,140.56838690000586,141.55239460000303,141.55239460000303,141.55239460000303,141.55239460000303,141.56898889999138,142.55304710002383,142.55304710002383,143.67223480000393,x,1,1.1135966000147164,None,,,,,Participant 05,001,2025-10-04_23h51.45.541,Motor sequence task,,2025.1.1,59.930839814476265,2025-10-04 23h51.57.942065 +0530,
150,v,61,1,15,v,1,0.31116719997953624,None,15,1,61,1,,,,,143.68843689997448,,143.6726018000045,143.68843689997448,144.67239899997367,144.67239899997367,144.67239899997367,144.67239899997367,144.6891115999897,145.67330279998714,145.67330279998714,145.99069220002275,v,1,0.31116719997953624,None,,,,,Participant 05,001,2025-10-04_23h51.45.541,Motor sequence task,,2025.1.1,59.930839814476265,2025-10-04 23h51.57.942065 +0530,
50,c,62,2,15,c,1,0.3696170999901369,None,15,2,62,2,,,,,146.00737930001924,,145.99106380000012,146.00737930001924,146.99210099998163,146.99210099998163,146.99210099998163,146.99210099998163,147.00824990001274,147.99311540002236,147.99311540002236,148.3772949000122,c,1,0.3696170999901369,None,,,,,Participant 05,001,2025-10-04_23h51.45.541,Motor sequence task,,2025.1.1,59.930839814476265,2025-10-04 23h51.57.942065 +0530,
-150,z,63,3,15,z,1,0.9636381000163965,None,15,3,63,3,,,,,148.39359039999545,,148.3776562999701,148.39359039999545,149.37792200001422,149.37792200001422,149.37792200001422,149.37792200001422,149.3948649999802,150.378519699967,150.378519699967,151.34668509999756,z,1,0.9636381000163965,None,,,,,Participant 05,001,2025-10-04_23h51.45.541,Motor sequence task,,2025.1.1,59.930839814476265,2025-10-04 23h51.57.942065 +0530,
-50,x,64,0,16,x,1,0.3777371000032872,None,16,0,64,0,,,,,151.36295179999433,,151.34700539999176,151.36295179999433,152.34703619999345,152.34703619999345,152.34703619999345,152.34703619999345,152.36495099996682,153.34907469997415,153.34907469997415,153.7324516000226,x,1,0.3777371000032872,None,,,,,Participant 05,001,2025-10-04_23h51.45.541,Motor sequence task,,2025.1.1,59.930839814476265,2025-10-04 23h51.57.942065 +0530,
150,v,65,1,16,v,1,0.4935496000107378,None,16,1,65,1,,,,,153.74870850000298,,153.73276169999735,153.74870850000298,154.734500200022,154.734500200022,154.734500200022,154.734500200022,154.74971319996985,155.73461980000138,155.73461980000138,156.23544899997069,v,1,0.4935496000107378,None,,,,,Participant 05,001,2025-10-04_23h51.45.541,Motor sequence task,,2025.1.1,59.930839814476265,2025-10-04 23h51.57.942065 +0530,
50,c,66,2,16,c,1,0.4266376000014134,None,16,2,66,2,,,,,156.2519353000098,,156.23575049999636,156.2519353000098,157.23596820002422,157.23596820002422,157.23596820002422,157.23596820002422,157.2527644999791,158.23698460002197,158.23698460002197,158.6726974999765,c,1,0.4266376000014134,None,,,,,Participant 05,001,2025-10-04_23h51.45.541,Motor sequence task,,2025.1.1,59.930839814476265,2025-10-04 23h51.57.942065 +0530,
-150,z,67,3,16,z,1,0.36249660002067685,None,16,3,67,3,,,,,158.6880374000175,,158.67302899999777,158.6880374000175,159.67200369999046,159.67200369999046,159.67200369999046,159.67200369999046,159.68910389998928,160.67323239997495,160.67323239997495,161.0408880999894,z,1,0.36249660002067685,None,,,,,Participant 05,001,2025-10-04_23h51.45.541,Motor sequence task,,2025.1.1,59.930839814476265,2025-10-04 23h51.57.942065 +0530,
-50,x,68,0,17,x,1,0.2792308999923989,None,17,0,68,0,,,,,161.05699409998488,,161.04127659997903,161.05699409998488,162.04112780001014,162.04112780001014,162.04112780001014,162.04112780001014,162.0578798999777,163.0422751000151,163.0422751000151,163.32714349997696,x,1,0.2792308999923989,None,,,,,Participant 05,001,2025-10-04_23h51.45.541,Motor sequence task,,2025.1.1,59.930839814476265,2025-10-04 23h51.57.942065 +0530,
150,v,69,1,17,v,1,0.784772899991367,None,17,1,69,1,,,,,163.34326469997177,,163.32747439999366,163.34326469997177,164.32759319996694,164.32759319996694,164.32759319996694,164.32759319996694,164.3439966000151,165.32822520000627,165.32822520000627,166.13028819998726,v,1,0.784772899991367,None,,,,,Participant 05,001,2025-10-04_23h51.45.541,Motor sequence task,,2025.1.1,59.930839814476265,2025-10-04 23h51.57.942065 +0530,
50,c,70,2,17,c,1,0.3922049000393599,None,17,2,70,2,,,,,166.1455386999878,,166.13060289999703,166.1455386999878,167.13068930001464,167.13068930001464,167.13068930001464,167.13068930001464,167.14755709999008,168.13138909998816,168.13138909998816,168.5319653999759,c,1,0.3922049000393599,None,,,,,Participant 05,001,2025-10-04_23h51.45.541,Motor sequence task,,2025.1.1,59.930839814476265,2025-10-04 23h51.57.942065 +0530,
-150,z,71,3,17,z,1,0.7976019000052474,None,17,3,71,3,,,,,168.54897679999704,,168.53235669998685,168.54897679999704,169.53350469999714,169.53350469999714,169.53350469999714,169.53350469999714,169.54917579999892,170.53347959998064,170.53347959998064,171.33592400001362,z,1,0.7976019000052474,None,,,,,Participant 05,001,2025-10-04_23h51.45.541,Motor sequence task,,2025.1.1,59.930839814476265,2025-10-04 23h51.57.942065 +0530,
-50,x,72,0,18,x,1,0.35166789998766035,None,18,0,72,0,,,,,171.35136349999812,,171.33637959999032,171.35136349999812,172.33660540002165,172.33660540002165,172.33660540002165,172.33660540002165,172.35233590001008,173.3374315999681,173.3374315999681,173.70522140001412,x,1,0.35166789998766035,None,,,,,Participant 05,001,2025-10-04_23h51.45.541,Motor sequence task,,2025.1.1,59.930839814476265,2025-10-04 23h51.57.942065 +0530,
150,v,73,1,18,v,1,0.5404540000017732,None,18,1,73,1,,,,,173.72050930000842,,173.70566089998465,173.72050930000842,174.70543689996703,174.70543689996703,174.70543689996703,174.70543689996703,174.72256319998996,175.70658669999102,175.70658669999102,176.25754670001334,v,1,0.5404540000017732,None,,,,,Participant 05,001,2025-10-04_23h51.45.541,Motor sequence task,,2025.1.1,59.930839814476265,2025-10-04 23h51.57.942065 +0530,
50,c,74,2,18,c,1,0.4658490000292659,None,18,2,74,2,,,,,176.27400759997545,,176.25786880002124,176.27400759997545,177.25821679999353,177.25821679999353,177.25821679999353,177.25821679999353,177.2749789999798,178.25903979997383,178.25903979997383,178.72633279999718,c,1,0.4658490000292659,None,,,,,Participant 05,001,2025-10-04_23h51.45.541,Motor sequence task,,2025.1.1,59.930839814476265,2025-10-04 23h51.57.942065 +0530,
-150,z,75,3,18,z,1,0.44363410002551973,None,18,3,75,3,,,,,178.7437506999704,,178.72670060000382,178.7437506999704,179.72793469997123,179.72793469997123,179.72793469997123,179.72793469997123,179.74495030002436,180.72865619999357,180.72865619999357,181.17941129999235,z,1,0.44363410002551973,None,,,,,Participant 05,001,2025-10-04_23h51.45.541,Motor sequence task,,2025.1.1,59.930839814476265,2025-10-04 23h51.57.942065 +0530,
-50,x,76,0,19,x,1,0.40457839996088296,None,19,0,76,0,,,,,181.19562979997136,,181.17977300001075,181.19562979997136,182.1804681000067,182.1804681000067,182.1804681000067,182.1804681000067,182.1973292999901,183.1817430999945,183.1817430999945,183.59790419996716,x,1,0.40457839996088296,None,,,,,Participant 05,001,2025-10-04_23h51.45.541,Motor sequence task,,2025.1.1,59.930839814476265,2025-10-04 23h51.57.942065 +0530,
150,v,77,1,19,v,1,0.3186379999970086,None,19,1,77,1,,,,,183.61619019997306,,183.59829809999792,183.61619019997306,184.5995677000028,184.5995677000028,184.5995677000028,184.5995677000028,184.6165183999692,185.60089900001185,185.60089900001185,185.93521540000802,v,1,0.3186379999970086,None,,,,,Participant 05,001,2025-10-04_23h51.45.541,Motor sequence task,,2025.1.1,59.930839814476265,2025-10-04 23h51.57.942065 +0530,
50,c,78,2,19,c,1,0.2926039000158198,None,19,2,78,2,,,,,185.95155489997705,,185.9355957999942,185.95155489997705,186.93549439997878,186.93549439997878,186.93549439997878,186.93549439997878,186.9525717999786,187.93638239998836,187.93638239998836,188.23694580001757,c,1,0.2926039000158198,None,,,,,Participant 05,001,2025-10-04_23h51.45.541,Motor sequence task,,2025.1.1,59.930839814476265,2025-10-04 23h51.57.942065 +0530,
-150,z,79,3,19,z,1,0.3885036999708973,None,19,3,79,3,,,,,188.25360290001845,,188.23731599998428,188.25360290001845,189.23853219999,189.23853219999,189.23853219999,189.23853219999,189.25527449999936,190.23929479997605,190.23929479997605,190.64057160000084,z,1,0.3885036999708973,None,,,,,Participant 05,001,2025-10-04_23h51.45.541,Motor sequence task,,2025.1.1,59.930839814476265,2025-10-04 23h51.57.942065 +0530,
-50,x,80,0,20,x,1,0.6768987000104971,None,20,0,80,0,,,,,190.65677140001208,,190.64097670000046,190.65677140001208,191.64044920000015,191.64044920000015,191.64044920000015,191.64044920000015,191.6578087999951,192.64197779999813,192.64197779999813,193.3261345999781,x,1,0.6768987000104971,None,,,,,Participant 05,001,2025-10-04_23h51.45.541,Motor sequence task,,2025.1.1,59.930839814476265,2025-10-04 23h51.57.942065 +0530,
150,v,81,1,20,v,1,0.2893444000510499,None,20,1,81,1,,,,,193.3428799000103,,193.3265051000053,193.3428799000103,194.32666919997428,194.32666919997428,194.32666919997428,194.32666919997428,194.3434578999877,195.32770179997897,195.32770179997897,195.62919790000888,v,1,0.2893444000510499,None,,,,,Participant 05,001,2025-10-04_23h51.45.541,Motor sequence task,,2025.1.1,59.930839814476265,2025-10-04 23h51.57.942065 +0530,
50,c,82,2,20,c,1,0.252417899959255,None,20,2,82,2,,,,,195.64530779997585,,195.62953839998227,195.64530779997585,196.62966729997424,196.62966729997424,196.62966729997424,196.62966729997424,196.6464470999781,197.63047009997535,197.63047009997535,197.8984310000087,c,1,0.252417899959255,None,,,,,Participant 05,001,2025-10-04_23h51.45.541,Motor sequence task,,2025.1.1,59.930839814476265,2025-10-04 23h51.57.942065 +0530,
-150,z,83,3,20,z,1,0.29969690000871196,None,20,3,83,3,,,,,197.91384629998356,,197.8989961000043,197.91384629998356,198.89910440001404,198.89910440001404,198.89910440001404,198.89910440001404,198.91590939997695,199.89994909998495,199.89994909998495,200.2004321999848,z,1,0.29969690000871196,None,,,,,Participant 05,001,2025-10-04_23h51.45.541,Motor sequence task,,2025.1.1,59.930839814476265,2025-10-04 23h51.57.942065 +0530,
-50,x,84,0,21,x,1,0.31822839996311814,None,21,0,84,0,,,,,200.21670829999493,,200.20076189999236,200.21670829999493,201.20096659997944,201.20096659997944,201.20096659997944,201.20096659997944,201.21767069998896,202.20176779996837,202.20176779996837,202.5368270999752,x,1,0.31822839996311814,None,,,,,Participant 05,001,2025-10-04_23h51.45.541,Motor sequence task,,2025.1.1,59.930839814476265,2025-10-04 23h51.57.942065 +0530,
150,v,85,1,21,v,1,0.34527520003030077,None,21,1,85,1,,,,,202.55294660001528,,202.53731360001257,202.55294660001528,203.53734989999793,203.53734989999793,203.53734989999793,203.53734989999793,203.5541350999847,204.5381178999669,204.5381178999669,204.88909840001725,v,1,0.34527520003030077,None,,,,,Participant 05,001,2025-10-04_23h51.45.541,Motor sequence task,,2025.1.1,59.930839814476265,2025-10-04 23h51.57.942065 +0530,
50,c,86,2,21,c,1,0.6596086000208743,None,21,2,86,2,,,,,204.90566879999824,,204.88981979998061,204.90566879999824,205.88958139996976,205.88958139996976,205.88958139996976,205.88958139996976,205.90623020002386,206.89051250001648,206.89051250001648,207.55819140002131,c,1,0.6596086000208743,None,,,,,Participant 05,001,2025-10-04_23h51.45.541,Motor sequence task,,2025.1.1,59.930839814476265,2025-10-04 23h51.57.942065 +0530,
-150,z,87,3,21,z,1,0.5854315999895334,None,21,3,87,3,,,,,207.57461189996684,,207.5585024000029,207.57461189996684,208.55974110000534,208.55974110000534,208.55974110000534,208.55974110000534,208.57634179998422,209.56067039998015,209.56067039998015,210.16122810001252,z,1,0.5854315999895334,None,,,,,Participant 05,001,2025-10-04_23h51.45.541,Motor sequence task,,2025.1.1,59.930839814476265,2025-10-04 23h51.57.942065 +0530,
-50,x,88,0,22,x,1,0.4090971000259742,None,22,0,88,0,,,,,210.1775842999923,,210.16154240001924,210.1775842999923,211.16262259997893,211.16262259997893,211.16262259997893,211.16262259997893,211.17834009998478,212.1633711999748,212.1633711999748,212.58052359998692,x,1,0.4090971000259742,None,,,,,Participant 05,001,2025-10-04_23h51.45.541,Motor sequence task,,2025.1.1,59.930839814476265,2025-10-04 23h51.57.942065 +0530,
150,v,89,1,22,v,1,0.4649403999792412,None,22,1,89,1,,,,,212.59691740002017,,212.58082360000117,212.59691740002017,213.58171749999747,213.58171749999747,213.58171749999747,213.58171749999747,213.59876919997623,214.58296799997333,214.58296799997333,215.05005849996815,v,1,0.4649403999792412,None,,,,,Participant 05,001,2025-10-04_23h51.45.541,Motor sequence task,,2025.1.1,59.930839814476265,2025-10-04 23h51.57.942065 +0530,
50,c,90,2,22,c,1,0.3519397000200115,None,22,2,90,2,,,,,215.066854899982,,215.0504454000038,215.066854899982,216.05073419999098,216.05073419999098,216.05073419999098,216.05073419999098,216.06734549999237,217.0516352999839,217.0516352999839,217.41913579998072,c,1,0.3519397000200115,None,,,,,Participant 05,001,2025-10-04_23h51.45.541,Motor sequence task,,2025.1.1,59.930839814476265,2025-10-04 23h51.57.942065 +0530,
-150,z,91,3,22,z,1,0.33106019999831915,None,22,3,91,3,,,,,217.4354508999968,,217.419444500003,217.4354508999968,218.41959499998484,218.41959499998484,218.41959499998484,218.41959499998484,218.43641239998396,219.42159340000944,219.42159340000944,219.755634000001,z,1,0.33106019999831915,None,,,,,Participant 05,001,2025-10-04_23h51.45.541,Motor sequence task,,2025.1.1,59.930839814476265,2025-10-04 23h51.57.942065 +0530,
-50,x,92,0,23,x,1,0.46312319999560714,None,23,0,92,0,,,,,219.77227409998886,,219.75594080000883,219.77227409998886,220.75586320000002,220.75586320000002,220.75586320000002,220.75586320000002,220.77289929997642,221.75693699996918,221.75693699996918,222.2251576000126,x,1,0.46312319999560714,None,,,,,Participant 05,001,2025-10-04_23h51.45.541,Motor sequence task,,2025.1.1,59.930839814476265,2025-10-04 23h51.57.942065 +0530,
150,v,93,1,23,v,1,0.3448538000229746,None,23,1,93,1,,,,,222.24051400000462,,222.22559190000175,222.24051400000462,223.22577509999974,223.22577509999974,223.22577509999974,223.22577509999974,223.24168729997473,224.22670050000306,224.22670050000306,224.57766359997913,v,1,0.3448538000229746,None,,,,,Participant 05,001,2025-10-04_23h51.45.541,Motor sequence task,,2025.1.1,59.930839814476265,2025-10-04 23h51.57.942065 +0530,
50,c,94,2,23,c,1,0.3073803000152111,None,23,2,94,2,,,,,224.59393169998657,,224.57798850000836,224.59393169998657,225.5778328999877,225.5778328999877,225.5778328999877,225.5778328999877,225.59485150000546,226.5792923999834,226.5792923999834,226.89755100000184,c,1,0.3073803000152111,None,,,,,Participant 05,001,2025-10-04_23h51.45.541,Motor sequence task,,2025.1.1,59.930839814476265,2025-10-04 23h51.57.942065 +0530,
-150,z,95,3,23,z,1,0.8585584000102244,None,23,3,95,3,,,,,226.9127808000194,,226.89789349999046,226.9127808000194,227.89755100000184,227.89755100000184,227.89755100000184,227.89755100000184,227.91438470000867,228.8978941999958,228.8978941999958,229.76667019998422,z,1,0.8585584000102244,None,,,,,Participant 05,001,2025-10-04_23h51.45.541,Motor sequence task,,2025.1.1,59.930839814476265,2025-10-04 23h51.57.942065 +0530,
-50,x,96,0,24,x,1,0.3597195000038482,None,24,0,96,0,,,,,229.7830466000014,,229.76702670002123,229.7830466000014,230.7669007999939,230.7669007999939,230.7669007999939,230.7669007999939,230.7838655000087,231.76912329997867,231.76912329997867,232.1355959000066,x,1,0.3597195000038482,None,,,,,Participant 05,001,2025-10-04_23h51.45.541,Motor sequence task,,2025.1.1,59.930839814476265,2025-10-04 23h51.57.942065 +0530,
150,v,97,1,24,v,1,0.3980306999874301,None,24,1,97,1,,,,,232.1520074,,232.13590639998438,232.1520074,233.1360610999982,233.1360610999982,233.1360610999982,233.1360610999982,233.1527880000067,234.13719590002438,234.13719590002438,234.5380333000212,v,1,0.3980306999874301,None,,,,,Participant 05,001,2025-10-04_23h51.45.541,Motor sequence task,,2025.1.1,59.930839814476265,2025-10-04 23h51.57.942065 +0530,
50,c,98,2,24,c,1,0.31857469998067245,None,24,2,98,2,,,,,234.5544041999965,,234.53838510002242,234.5544041999965,235.53880239999853,235.53880239999853,235.53880239999853,235.53880239999853,235.5554113999824,236.5399587000138,236.5399587000138,236.8738038999727,c,1,0.31857469998067245,None,,,,,Participant 05,001,2025-10-04_23h51.45.541,Motor sequence task,,2025.1.1,59.930839814476265,2025-10-04 23h51.57.942065 +0530,
-150,z,99,3,24,z,1,0.603087899973616,None,24,3,99,3,,,,,236.89012310002,,236.87417480000295,236.89012310002,237.87509619997581,237.87509619997581,237.87509619997581,237.87509619997581,237.89206669997657,238.87780550000025,238.87780550000025,239.49320520000765,z,1,0.603087899973616,None,,,,,Participant 05,001,2025-10-04_23h51.45.541,Motor sequence task,,2025.1.1,59.930839814476265,2025-10-04 23h51.57.942065 +0530,
-50,x,0,0,0,x,1,0.3274942999705672,None,,,,,0,0,0,0,239.50991949997842,,239.49845569999889,239.50991949997842,240.49411879997933,240.49411879997933,240.49411879997933,240.49411879997933,240.51178980001714,241.49582609999925,241.49582609999925,241.82984129997203,,,,,x,1,0.3274942999705672,None,Participant 05,001,2025-10-04_23h51.45.541,Motor sequence task,,2025.1.1,59.930839814476265,2025-10-04 23h51.57.942065 +0530,
-50,x,1,1,1,x,1,0.7084617000073195,None,,,,,1,1,1,0,241.84626530000241,,241.83015270001488,241.84626530000241,242.83018180000363,242.83018180000363,242.83018180000363,242.83018180000363,242.8471710999729,243.83122819999699,243.83122819999699,244.54918759997236,,,,,x,1,0.7084617000073195,None,Participant 05,001,2025-10-04_23h51.45.541,Motor sequence task,,2025.1.1,59.930839814476265,2025-10-04 23h51.57.942065 +0530,
-50,x,2,2,2,x,1,0.7068011999945156,None,,,,,2,2,2,0,244.56578509998508,,244.54958609997993,244.56578509998508,245.54978729999857,245.54978729999857,245.54978729999857,245.54978729999857,245.56641769997077,246.55064550001407,246.55064550001407,247.26873319997685,,,,,x,1,0.7068011999945156,None,Participant 05,001,2025-10-04_23h51.45.541,Motor sequence task,,2025.1.1,59.930839814476265,2025-10-04 23h51.57.942065 +0530,
50,c,3,3,0,c,1,0.7654009999823757,None,,,,,0,3,3,2,247.2849050000077,,247.26905379997334,247.2849050000077,248.26897460001055,248.26897460001055,248.26897460001055,248.26897460001055,248.28603519999888,249.27110060001723,249.27110060001723,250.0382803999819,,,,,c,1,0.7654009999823757,None,Participant 05,001,2025-10-04_23h51.45.541,Motor sequence task,,2025.1.1,59.930839814476265,2025-10-04 23h51.57.942065 +0530,
150,v,4,4,0,v,1,0.7716506000142545,None,,,,,0,4,4,1,250.0546147999703,,250.038587499992,250.0546147999703,251.03888110001571,251.03888110001571,251.03888110001571,251.03888110001571,251.05556670000078,252.04092130000936,252.04092130000936,252.82485350000206,,,,,v,1,0.7716506000142545,None,Participant 05,001,2025-10-04_23h51.45.541,Motor sequence task,,2025.1.1,59.930839814476265,2025-10-04 23h51.57.942065 +0530,
150,v,5,5,1,v,1,0.36172650003572926,None,,,,,1,5,5,1,252.8413521000184,,252.82516790000955,252.8413521000184,253.82549459999427,253.82549459999427,253.82549459999427,253.82549459999427,253.84213429997908,254.82671709998976,254.82671709998976,255.19411579996813,,,,,v,1,0.36172650003572926,None,Participant 05,001,2025-10-04_23h51.45.541,Motor sequence task,,2025.1.1,59.930839814476265,2025-10-04 23h51.57.942065 +0530,
150,v,6,6,2,v,1,0.6805858000298031,None,,,,,2,6,6,1,255.2102616999764,,255.19457529997453,255.2102616999764,256.19453949999297,256.19453949999297,256.19453949999297,256.19453949999297,256.21236449998105,257.1961142999935,257.1961142999935,257.8810185000184,,,,,v,1,0.6805858000298031,None,Participant 05,001,2025-10-04_23h51.45.541,Motor sequence task,,2025.1.1,59.930839814476265,2025-10-04 23h51.57.942065 +0530,
-150,z,7,7,0,z,1,0.7149593000067398,None,,,,,0,7,7,3,257.8973122999887,,257.8813423999818,257.8973122999887,258.8812227000017,258.8812227000017,258.8812227000017,258.8812227000017,258.89808140002424,259.8821639000089,259.8821639000089,260.6000824000221,,,,,z,1,0.7149593000067398,None,Participant 05,001,2025-10-04_23h51.45.541,Motor sequence task,,2025.1.1,59.930839814476265,2025-10-04 23h51.57.942065 +0530,
-150,z,8,8,1,z,1,0.8104444000055082,None,,,,,1,8,8,3,260.6167716999771,,260.6005873999675,260.6167716999771,261.60079970001243,261.60079970001243,261.60079970001243,261.60079970001243,261.61781740002334,262.60154060000787,262.60154060000787,263.4204859000165,,,,,z,1,0.8104444000055082,None,Participant 05,001,2025-10-04_23h51.45.541,Motor sequence task,,2025.1.1,59.930839814476265,2025-10-04 23h51.57.942065 +0530,
150,v,9,9,3,v,1,0.6586318999761716,None,,,,,3,9,9,1,263.4357480999897,,263.4208721999894,263.4357480999897,264.42093979998026,264.42093979998026,264.42093979998026,264.42093979998026,264.4376577999792,265.4219692000188,265.4219692000188,266.09058620000724,,,,,v,1,0.6586318999761716,None,Participant 05,001,2025-10-04_23h51.45.541,Motor sequence task,,2025.1.1,59.930839814476265,2025-10-04 23h51.57.942065 +0530,
-150,z,10,10,2,z,1,0.5962418999988586,None,,,,,2,10,10,3,266.10553669999354,,266.0911792999832,266.10553669999354,267.0902901000227,267.0902901000227,267.0902901000227,267.0902901000227,267.1064994999906,268.09172720002243,268.09172720002243,268.692046799988,,,,,z,1,0.5962418999988586,None,Participant 05,001,2025-10-04_23h51.45.541,Motor sequence task,,2025.1.1,59.930839814476265,2025-10-04 23h51.57.942065 +0530,
-150,z,11,11,3,z,1,1.1070210000034422,None,,,,,3,11,11,3,268.70861500001047,,268.6924021000159,268.70861500001047,269.69469939998817,269.69469939998817,269.69469939998817,269.69469939998817,269.7099328999757,270.6938398000202,270.6938398000202,271.8125071999966,,,,,z,1,1.1070210000034422,None,Participant 05,001,2025-10-04_23h51.45.541,Motor sequence task,,2025.1.1,59.930839814476265,2025-10-04 23h51.57.942065 +0530,
150,v,12,12,4,v,1,0.759770100004971,None,,,,,4,12,12,1,271.8289666000055,,271.8129561999813,271.8289666000055,272.81299770000624,272.81299770000624,272.81299770000624,272.81299770000624,272.82998280000174,273.8140826000017,273.8140826000017,274.5822390000103,,,,,v,1,0.759770100004971,None,Participant 05,001,2025-10-04_23h51.45.541,Motor sequence task,,2025.1.1,59.930839814476265,2025-10-04 23h51.57.942065 +0530,
-150,z,13,13,4,z,1,0.5045193000114523,None,,,,,4,13,13,3,274.5987544999807,,274.58261709997896,274.5987544999807,275.58265280001797,275.58265280001797,275.58265280001797,275.58265280001797,275.5994214999955,276.5836765000131,276.5836765000131,277.10173370002303,,,,,z,1,0.5045193000114523,None,Participant 05,001,2025-10-04_23h51.45.541,Motor sequence task,,2025.1.1,59.930839814476265,2025-10-04 23h51.57.942065 +0530,
-150,z,14,14,5,z,1,0.48567959998035803,None,,,,,5,14,14,3,277.1176620000042,,277.102093399968,277.1176620000042,278.1018182999687,278.1018182999687,278.1018182999687,278.1018182999687,278.11851200001547,279.1037950000027,279.1037950000027,279.60468370001763,,,,,z,1,0.48567959998035803,None,Participant 05,001,2025-10-04_23h51.45.541,Motor sequence task,,2025.1.1,59.930839814476265,2025-10-04 23h51.57.942065 +0530,
-150,z,15,15,6,z,1,0.6878926000208594,None,,,,,6,15,15,3,279.62102479999885,,279.6052110000164,279.62102479999885,280.6053723000223,280.6053723000223,280.6053723000223,280.6053723000223,280.6220395999844,281.6060767999734,281.6060767999734,282.30705579998903,,,,,z,1,0.6878926000208594,None,Participant 05,001,2025-10-04_23h51.45.541,Motor sequence task,,2025.1.1,59.930839814476265,2025-10-04 23h51.57.942065 +0530,
150,v,16,16,5,v,1,0.7345933000324294,None,,,,,5,16,16,1,282.32386000000406,,282.3074108000146,282.32386000000406,283.3077084000106,283.3077084000106,283.3077084000106,283.3077084000106,283.32469340000534,284.30874140001833,284.30874140001833,285.0601846000063,,,,,v,1,0.7345933000324294,None,Participant 05,001,2025-10-04_23h51.45.541,Motor sequence task,,2025.1.1,59.930839814476265,2025-10-04 23h51.57.942065 +0530,
150,v,17,17,6,v,1,1.1399384000105783,None,,,,,6,17,17,1,285.07704080000985,,285.060506800015,285.07704080000985,286.06071699998574,286.06071699998574,286.06071699998574,286.06071699998574,286.07754999998724,287.0617997000227,287.0617997000227,288.2136343999882,,,,,v,1,1.1399384000105783,None,Participant 05,001,2025-10-04_23h51.45.541,Motor sequence task,,2025.1.1,59.930839814476265,2025-10-04 23h51.57.942065 +0530,
-150,z,18,18,7,z,1,0.630013800051529,None,,,,,7,18,18,3,288.23023519996786,,288.2139402999892,288.23023519996786,289.2145068999962,289.2145068999962,289.2145068999962,289.2145068999962,289.2313209999702,290.21526969998376,290.21526969998376,290.85059009998804,,,,,z,1,0.630013800051529,None,Participant 05,001,2025-10-04_23h51.45.541,Motor sequence task,,2025.1.1,59.930839814476265,2025-10-04 23h51.57.942065 +0530,
50,c,19,19,1,c,1,0.7942307000048459,None,,,,,1,19,19,2,290.86589529999765,,290.85098799999105,290.86589529999765,291.8510159999714,291.8510159999714,291.8510159999714,291.8510159999714,291.8677607999998,292.85177369997837,292.85177369997837,293.6531455999939,,,,,c,1,0.7942307000048459,None,Participant 05,001,2025-10-04_23h51.45.541,Motor sequence task,,2025.1.1,59.930839814476265,2025-10-04 23h51.57.942065 +0530,
50,c,20,20,2,c,1,0.5269358999794349,None,,,,,2,20,20,2,293.6691761999973,,293.65346960001625,293.6691761999973,294.65448359999573,294.65448359999573,294.65448359999573,294.65448359999573,294.67016370000783,295.6552848999854,295.6552848999854,296.18999500002246,,,,,c,1,0.5269358999794349,None,Participant 05,001,2025-10-04_23h51.45.541,Motor sequence task,,2025.1.1,59.930839814476265,2025-10-04 23h51.57.942065 +0530,
50,c,21,21,3,c,1,0.4644781000097282,None,,,,,3,21,21,2,296.20503760001156,,296.19038260000525,296.20503760001156,297.19015099998796,297.19015099998796,297.19015099998796,297.19015099998796,297.20724820002215,298.19091379997553,298.19091379997553,298.65835310000693,,,,,c,1,0.4644781000097282,None,Participant 05,001,2025-10-04_23h51.45.541,Motor sequence task,,2025.1.1,59.930839814476265,2025-10-04 23h51.57.942065 +0530,
50,c,22,22,4,c,1,0.2570083999889903,None,,,,,4,22,22,2,298.6751642000163,,298.65896829997655,298.6751642000163,299.65893859998323,299.65893859998323,299.65893859998323,299.65893859998323,299.6756406999775,300.66079880000325,300.66079880000325,300.9285665000207,,,,,c,1,0.2570083999889903,None,Participant 05,001,2025-10-04_23h51.45.541,Motor sequence task,,2025.1.1,59.930839814476265,2025-10-04 23h51.57.942065 +0530,
50,c,23,23,5,c,1,0.6560080000199378,None,,,,,5,23,23,2,300.9438086000155,,300.92894299997715,300.9438086000155,301.9281723999884,301.9281723999884,301.9281723999884,301.9281723999884,301.9453021999798,302.9290670999908,302.9290670999908,303.5978908999823,,,,,c,1,0.6560080000199378,None,Participant 05,001,2025-10-04_23h51.45.541,Motor sequence task,,2025.1.1,59.930839814476265,2025-10-04 23h51.57.942065 +0530,
-50,x,24,24,3,x,1,0.8054615000146441,None,,,,,3,24,24,0,303.6143912000116,,303.5982684000046,303.6143912000116,304.59793920000084,304.59793920000084,304.59793920000084,304.59793920000084,304.61496719997376,305.59910270001274,305.59910270001274,306.4170291000046,,,,,x,1,0.8054615000146441,None,Participant 05,001,2025-10-04_23h51.45.541,Motor sequence task,,2025.1.1,59.930839814476265,2025-10-04 23h51.57.942065 +0530,
150,v,25,25,7,v,1,0.7153182000038214,None,,,,,7,25,25,1,306.43305779999355,,306.4173485999927,306.43305779999355,307.41842549998546,307.41842549998546,307.41842549998546,307.41842549998546,307.43416150001576,308.41926039999817,308.41926039999817,309.13729949999833,,,,,v,1,0.7153182000038214,None,Participant 05,001,2025-10-04_23h51.45.541,Motor sequence task,,2025.1.1,59.930839814476265,2025-10-04 23h51.57.942065 +0530,
50,c,26,26,6,c,1,0.4445420000120066,None,,,,,6,26,26,2,309.1528338000062,,309.13761019997764,309.1528338000062,310.1376298000105,310.1376298000105,310.1376298000105,310.1376298000105,310.15421110001625,311.13862490002066,311.13862490002066,311.58908579999115,,,,,c,1,0.4445420000120066,None,Participant 05,001,2025-10-04_23h51.45.541,Motor sequence task,,2025.1.1,59.930839814476265,2025-10-04 23h51.57.942065 +0530,
50,c,27,27,7,c,1,0.4884120000060648,None,,,,,7,27,27,2,311.60541429999284,,311.5894054999808,311.60541429999284,312.5895788000198,312.5895788000198,312.5895788000198,312.5895788000198,312.60771379998187,313.5915709999972,313.5915709999972,314.09275790001266,,,,,c,1,0.4884120000060648,None,Participant 05,001,2025-10-04_23h51.45.541,Motor sequence task,,2025.1.1,59.930839814476265,2025-10-04 23h51.57.942065 +0530,
150,v,28,28,8,v,1,0.5658132000244223,None,,,,,8,28,28,1,314.1089527999866,,314.0931434999802,314.1089527999866,315.0929474000004,315.0929474000004,315.0929474000004,315.0929474000004,315.10966080002254,316.0937468999764,316.0937468999764,316.66168830002425,,,,,v,1,0.5658132000244223,None,Participant 05,001,2025-10-04_23h51.45.541,Motor sequence task,,2025.1.1,59.930839814476265,2025-10-04 23h51.57.942065 +0530,
-50,x,29,29,4,x,1,0.8087317000026815,None,,,,,4,29,29,0,316.67832359997556,,316.6620675000013,316.67832359997556,317.6622995000216,317.6622995000216,317.6622995000216,317.6622995000216,317.67893910000566,318.66318919998594,318.66318919998594,319.4820627999725,,,,,x,1,0.8087317000026815,None,Participant 05,001,2025-10-04_23h51.45.541,Motor sequence task,,2025.1.1,59.930839814476265,2025-10-04 23h51.57.942065 +0530,
150,v,30,30,9,v,1,0.5744748000288382,None,,,,,9,30,30,1,319.4981091999798,,319.482385899988,319.4981091999798,320.4823944999953,320.4823944999953,320.4823944999953,320.4823944999953,320.4992438000045,321.48336449998897,321.48336449998897,322.06824019999476,,,,,v,1,0.5744748000288382,None,Participant 05,001,2025-10-04_23h51.45.541,Motor sequence task,,2025.1.1,59.930839814476265,2025-10-04 23h51.57.942065 +0530,
-50,x,31,31,5,x,1,0.9990107999765314,None,,,,,5,31,31,0,322.083471400023,,322.06856290000724,322.083471400023,323.0686115999706,323.0686115999706,323.0686115999706,323.0686115999706,323.08541629998945,324.06858020002255,324.06858020002255,325.0714840000146,,,,,x,1,0.9990107999765314,None,Participant 05,001,2025-10-04_23h51.45.541,Motor sequence task,,2025.1.1,59.930839814476265,2025-10-04 23h51.57.942065 +0530,
-50,x,32,32,6,x,1,0.5044617999810725,None,,,,,6,32,32,0,325.0873053999967,,325.07186989998445,325.0873053999967,326.0711949999677,326.0711949999677,326.0711949999677,326.0711949999677,326.08812570001464,327.0732185000088,327.0732185000088,327.5909978999989,,,,,x,1,0.5044617999810725,None,Participant 05,001,2025-10-04_23h51.45.541,Motor sequence task,,2025.1.1,59.930839814476265,2025-10-04 23h51.57.942065 +0530,
-150,z,33,33,8,z,1,0.5639620999572799,None,,,,,8,33,33,3,327.60626680002315,,327.591382100014,327.60626680002315,328.59136419999413,328.59136419999413,328.59136419999413,328.59136419999413,328.6082028999808,329.5921584999887,329.5921584999887,330.16040350002004,,,,,z,1,0.5639620999572799,None,Participant 05,001,2025-10-04_23h51.45.541,Motor sequence task,,2025.1.1,59.930839814476265,2025-10-04 23h51.57.942065 +0530,
-50,x,34,34,7,x,1,0.8358791000209749,None,,,,,7,34,34,0,330.1768684000126,,330.1607108999742,330.1768684000126,331.15965599997435,331.15965599997435,331.15965599997435,331.15965599997435,331.177509000001,332.1613956000074,332.1613956000074,333.0129862999893,,,,,x,1,0.8358791000209749,None,Participant 05,001,2025-10-04_23h51.45.541,Motor sequence task,,2025.1.1,59.930839814476265,2025-10-04 23h51.57.942065 +0530,
-150,z,35,35,9,z,1,0.6996748999808915,None,,,,,9,35,35,3,333.02919919998385,,333.01337270002114,333.02919919998385,334.0133391999989,334.0133391999989,334.0133391999989,334.0133391999989,334.03026410000166,335.0157589999726,335.0157589999726,335.71658050001133,,,,,z,1,0.6996748999808915,None,Participant 05,001,2025-10-04_23h51.45.541,Motor sequence task,,2025.1.1,59.930839814476265,2025-10-04 23h51.57.942065 +0530,
50,c,36,36,8,c,1,0.5579194000456482,None,,,,,8,36,36,2,335.73237310000695,,335.71688700001687,335.73237310000695,336.71717909997096,336.71717909997096,336.71717909997096,336.71717909997096,336.7339862000081,337.71806889999425,337.71806889999425,338.28540599998087,,,,,c,1,0.5579194000456482,None,Participant 05,001,2025-10-04_23h51.45.541,Motor sequence task,,2025.1.1,59.930839814476265,2025-10-04 23h51.57.942065 +0530,
150,v,37,37,10,v,1,0.3813710999675095,None,,,,,10,37,37,1,338.30225299997255,,338.2857914000051,338.30225299997255,339.2863903999678,339.2863903999678,339.2863903999678,339.2863903999678,339.3031715999823,340.28707849996863,340.28707849996863,340.67174419999355,,,,,v,1,0.3813710999675095,None,Participant 05,001,2025-10-04_23h51.45.541,Motor sequence task,,2025.1.1,59.930839814476265,2025-10-04 23h51.57.942065 +0530,
-150,z,38,38,10,z,1,0.5828083000378683,None,,,,,10,38,38,3,340.6884868000052,,340.67205130000366,340.6884868000052,341.67184149997775,341.67184149997775,341.67184149997775,341.67184149997775,341.68899200001033,342.6730846000137,342.6730846000137,343.25697589997435,,,,,z,1,0.5828083000378683,None,Participant 05,001,2025-10-04_23h51.45.541,Motor sequence task,,2025.1.1,59.930839814476265,2025-10-04 23h51.57.942065 +0530,
50,c,39,39,9,c,1,0.41986460000043735,None,,,,,9,39,39,2,343.2743260000134,,343.2574448999949,343.2743260000134,344.2586739999824,344.2586739999824,344.2586739999824,344.2586739999824,344.2747004000121,345.2593062000233,345.2593062000233,345.69432950002374,,,,,c,1,0.41986460000043735,None,Participant 05,001,2025-10-04_23h51.45.541,Motor sequence task,,2025.1.1,59.930839814476265,2025-10-04 23h51.57.942065 +0530,
150,v,40,40,11,v,1,0.559111499984283,None,,,,,11,40,40,1,345.7093406000058,,345.694743799977,345.7093406000058,346.6945495000109,346.6945495000109,346.6945495000109,346.6945495000109,346.71140199998626,347.69554549996974,347.69554549996974,348.2634318000055,,,,,v,1,0.559111499984283,None,Participant 05,001,2025-10-04_23h51.45.541,Motor sequence task,,2025.1.1,59.930839814476265,2025-10-04 23h51.57.942065 +0530,
50,c,41,41,10,c,1,0.5019919999758713,None,,,,,10,41,41,2,348.27978370001074,,348.2637676000013,348.27978370001074,349.2639258999843,349.2639258999843,349.2639258999843,349.2639258999843,349.2807568999706,350.2648941000225,350.2648941000225,350.78245759999845,,,,,c,1,0.5019919999758713,None,Participant 05,001,2025-10-04_23h51.45.541,Motor sequence task,,2025.1.1,59.930839814476265,2025-10-04 23h51.57.942065 +0530,
-150,z,42,42,11,z,1,0.4245708000380546,None,,,,,11,42,42,3,350.79869029996917,,350.78277639998123,350.79869029996917,351.78282989998115,351.78282989998115,351.78282989998115,351.78282989998115,351.79959199996665,352.78481250000186,352.78481250000186,353.2187866999884,,,,,z,1,0.4245708000380546,None,Participant 05,001,2025-10-04_23h51.45.541,Motor sequence task,,2025.1.1,59.930839814476265,2025-10-04 23h51.57.942065 +0530,
50,c,43,43,11,c,1,0.6054430999793112,None,,,,,11,43,43,2,353.2341152000008,,353.21910669998033,353.2341152000008,354.21895609999774,354.21895609999774,354.21895609999774,354.21895609999774,354.23584909999045,355.21982260001823,355.21982260001823,355.83840479998617,,,,,c,1,0.6054430999793112,None,Participant 05,001,2025-10-04_23h51.45.541,Motor sequence task,,2025.1.1,59.930839814476265,2025-10-04 23h51.57.942065 +0530,
50,c,44,44,12,c,1,0.5195324999513105,None,,,,,12,44,44,2,355.8547315999749,,355.8387849999708,355.8547315999749,356.838751400006,356.838751400006,356.838751400006,356.838751400006,356.85562819999177,357.83963820000645,357.83963820000645,358.3744149999693,,,,,c,1,0.5195324999513105,None,Participant 05,001,2025-10-04_23h51.45.541,Motor sequence task,,2025.1.1,59.930839814476265,2025-10-04 23h51.57.942065 +0530,
150,v,45,45,12,v,1,0.7136419999878854,None,,,,,12,45,45,1,358.39040669996757,,358.3747362999711,358.39040669996757,359.37467910000123,359.37467910000123,359.37467910000123,359.37467910000123,359.39132910000626,360.37557159998687,360.37557159998687,361.0939047000138,,,,,v,1,0.7136419999878854,None,Participant 05,001,2025-10-04_23h51.45.541,Motor sequence task,,2025.1.1,59.930839814476265,2025-10-04 23h51.57.942065 +0530,
50,c,46,46,13,c,1,0.3787378999986686,None,,,,,13,46,46,2,361.1098448999692,,361.09434259997215,361.1098448999692,362.0950102999923,362.0950102999923,362.0950102999923,362.0950102999923,362.1110077999765,363.0959054999985,363.0959054999985,363.4792668999871,,,,,c,1,0.3787378999986686,None,Participant 05,001,2025-10-04_23h51.45.541,Motor sequence task,,2025.1.1,59.930839814476265,2025-10-04 23h51.57.942065 +0530,
-50,x,47,47,8,x,1,0.36542759998701513,None,,,,,8,47,47,0,363.49556810001377,,363.4795821000007,363.49556810001377,364.48084819997894,364.48084819997894,364.48084819997894,364.48084819997894,364.49833209998906,365.4817386000068,365.4817386000068,365.84851380001055,,,,,x,1,0.36542759998701513,None,Participant 05,001,2025-10-04_23h51.45.541,Motor sequence task,,2025.1.1,59.930839814476265,2025-10-04 23h51.57.942065 +0530,
50,c,48,48,14,c,1,0.6236203000298701,None,,,,,14,48,48,2,365.86570620001294,,365.84890709997853,365.86570620001294,366.8496408999781,366.8496408999781,366.8496408999781,366.8496408999781,366.8665439999895,367.85055640002247,367.85055640002247,368.4856674000039,,,,,c,1,0.6236203000298701,None,Participant 05,001,2025-10-04_23h51.45.541,Motor sequence task,,2025.1.1,59.930839814476265,2025-10-04 23h51.57.942065 +0530,
-50,x,49,49,9,x,1,0.4833592999493703,None,,,,,9,49,49,0,368.50108449999243,,368.4860966000124,368.50108449999243,369.4860714999959,369.4860714999959,369.4860714999959,369.4860714999959,369.50314539996907,370.4875185000128,370.4875185000128,370.971499199979,,,,,x,1,0.4833592999493703,None,Participant 05,001,2025-10-04_23h51.45.541,Motor sequence task,,2025.1.1,59.930839814476265,2025-10-04 23h51.57.942065 +0530,
-50,x,50,50,10,x,1,0.6798942000023089,None,,,,,10,50,50,0,370.9874510000227,,370.97200030001113,370.9874510000227,371.97164870001143,371.97164870001143,371.97164870001143,371.97164870001143,371.98869139997987,372.97274870000547,372.97274870000547,373.65741019998677,,,,,x,1,0.6798942000023089,None,Participant 05,001,2025-10-04_23h51.45.541,Motor sequence task,,2025.1.1,59.930839814476265,2025-10-04 23h51.57.942065 +0530,
-150,z,51,51,12,z,1,0.5161164999590255,None,,,,,12,51,51,3,373.6735240999842,,373.6578920999891,373.6735240999842,374.6582951999735,374.6582951999735,374.6582951999735,374.6582951999735,374.675661700021,375.65965859999415,375.65965859999415,376.17721860000165,,,,,z,1,0.5161164999590255,None,Participant 05,001,2025-10-04_23h51.45.541,Motor sequence task,,2025.1.1,59.930839814476265,2025-10-04 23h51.57.942065 +0530,
150,v,52,52,13,v,1,0.7021302999928594,None,,,,,13,52,52,1,376.1934843999916,,376.17766079999274,376.1934843999916,377.1776370999869,377.1776370999869,377.1776370999869,377.1776370999869,377.1945871000062,378.1785729000112,378.1785729000112,378.8968371999799,,,,,v,1,0.7021302999928594,None,Participant 05,001,2025-10-04_23h51.45.541,Motor sequence task,,2025.1.1,59.930839814476265,2025-10-04 23h51.57.942065 +0530,
-50,x,53,53,11,x,1,0.6339057000004686,None,,,,,11,53,53,0,378.91289600002347,,378.8973283999949,378.91289600002347,379.8980599999777,379.8980599999777,379.8980599999777,379.8980599999777,379.9138563000015,380.8981287999777,380.8981287999777,381.5331715000211,,,,,x,1,0.6339057000004686,None,Participant 05,001,2025-10-04_23h51.45.541,Motor sequence task,,2025.1.1,59.930839814476265,2025-10-04 23h51.57.942065 +0530,
-150,z,54,54,13,z,1,0.5793329000007361,None,,,,,13,54,54,3,381.5497446000227,,381.533482800005,381.5497446000227,382.5335289000068,382.5335289000068,382.5335289000068,382.5335289000068,382.5504026999697,383.53446609998355,383.53446609998355,384.1193954999908,,,,,z,1,0.5793329000007361,None,Participant 05,001,2025-10-04_23h51.45.541,Motor sequence task,,2025.1.1,59.930839814476265,2025-10-04 23h51.57.942065 +0530,
150,v,55,55,14,v,1,0.6597430999972858,None,,,,,14,55,55,1,384.1357776999939,,384.1197657000157,384.1357776999939,385.11958449997474,385.11958449997474,385.11958449997474,385.11958449997474,385.13637299998663,386.12066000001505,386.12066000001505,386.7884776999708,,,,,v,1,0.6597430999972858,None,Participant 05,001,2025-10-04_23h51.45.541,Motor sequence task,,2025.1.1,59.930839814476265,2025-10-04 23h51.57.942065 +0530,
50,c,56,56,15,c,1,0.3982858000090346,None,,,,,15,56,56,2,386.804647699988,,386.78891230002046,386.804647699988,387.78991669998504,387.78991669998504,387.78991669998504,387.78991669998504,387.8057517000125,388.7903941000113,388.7903941000113,389.1912584999809,,,,,c,1,0.3982858000090346,None,Participant 05,001,2025-10-04_23h51.45.541,Motor sequence task,,2025.1.1,59.930839814476265,2025-10-04 23h51.57.942065 +0530,
150,v,57,57,15,v,1,0.4854203999857418,None,,,,,15,57,57,1,389.2073601000011,,389.19177789997775,389.2073601000011,390.1924867000198,390.1924867000198,390.1924867000198,390.1924867000198,390.20988199999556,391.1933477999992,391.1933477999992,391.69423869997263,,,,,v,1,0.4854203999857418,None,Participant 05,001,2025-10-04_23h51.45.541,Motor sequence task,,2025.1.1,59.930839814476265,2025-10-04 23h51.57.942065 +0530,
150,v,58,58,16,v,1,0.47977109998464584,None,,,,,16,58,58,1,391.7112464000238,,391.69455610000296,391.7112464000238,392.69454699999187,392.69454699999187,392.69454699999187,392.69454699999187,392.7113756000181,393.69570689997636,393.69570689997636,394.1807552999817,,,,,v,1,0.47977109998464584,None,Participant 05,001,2025-10-04_23h51.45.541,Motor sequence task,,2025.1.1,59.930839814476265,2025-10-04 23h51.57.942065 +0530,
50,c,59,59,16,c,1,0.5230982999783009,None,,,,,16,59,59,2,394.1963531000074,,394.1811301999842,394.1963531000074,395.18119699996896,395.18119699996896,395.18119699996896,395.18119699996896,395.1981982999714,396.1820322999847,396.1820322999847,396.71661930001574,,,,,c,1,0.5230982999783009,None,Participant 05,001,2025-10-04_23h51.45.541,Motor sequence task,,2025.1.1,59.930839814476265,2025-10-04 23h51.57.942065 +0530,
150,v,60,60,17,v,1,0.6490850999834947,None,,,,,17,60,60,1,396.7329645999707,,396.7169333000202,396.7329645999707,397.71709869999904,397.71709869999904,397.71709869999904,397.71709869999904,397.7337408000021,398.7179265000159,398.7179265000159,399.3695796999964,,,,,v,1,0.6490850999834947,None,Participant 05,001,2025-10-04_23h51.45.541,Motor sequence task,,2025.1.1,59.930839814476265,2025-10-04 23h51.57.942065 +0530,
50,c,61,61,17,c,1,0.38044979999540374,None,,,,,17,61,61,2,399.3857547999942,,399.3699591999757,399.3857547999942,400.37046599999303,400.37046599999303,400.37046599999303,400.37046599999303,400.3873307000031,401.3712616999983,401.3712616999983,401.755634000001,,,,,c,1,0.38044979999540374,None,Participant 05,001,2025-10-04_23h51.45.541,Motor sequence task,,2025.1.1,59.930839814476265,2025-10-04 23h51.57.942065 +0530,
-50,x,62,62,12,x,1,0.7870873999781907,None,,,,,12,62,62,0,401.7723099999712,,401.7559534999891,401.7723099999712,402.7559186000144,402.7559186000144,402.7559186000144,402.7559186000144,402.77280789997894,403.75687089998974,403.75687089998974,404.5578058999963,,,,,x,1,0.7870873999781907,None,Participant 05,001,2025-10-04_23h51.45.541,Motor sequence task,,2025.1.1,59.930839814476265,2025-10-04 23h51.57.942065 +0530,
-50,x,63,63,13,x,1,0.4918070999556221,None,,,,,13,63,63,0,404.57419579999987,,404.55811320000794,404.57419579999987,405.5594048000057,405.5594048000057,405.5594048000057,405.5594048000057,405.5758429999696,406.5603621000191,406.5603621000191,407.0611414000159,,,,,x,1,0.4918070999556221,None,Participant 05,001,2025-10-04_23h51.45.541,Motor sequence task,,2025.1.1,59.930839814476265,2025-10-04 23h51.57.942065 +0530,
50,c,64,64,18,c,1,0.6338707000249997,None,,,,,18,64,64,2,407.07738570001675,,407.0614746999927,407.07738570001675,408.06152709998423,408.06152709998423,408.06152709998423,408.06152709998423,408.07867229997646,409.06268229999114,409.06268229999114,409.6978977000108,,,,,c,1,0.6338707000249997,None,Participant 05,001,2025-10-04_23h51.45.541,Motor sequence task,,2025.1.1,59.930839814476265,2025-10-04 23h51.57.942065 +0530,
-150,z,65,65,14,z,1,0.839116399991326,None,,,,,14,65,65,3,409.7138751000166,,409.69827429996803,409.7138751000166,410.6982226999826,410.6982226999826,410.6982226999826,410.6982226999826,410.7150858999812,411.6990259999875,411.6990259999875,412.55031489999965,,,,,z,1,0.839116399991326,None,Participant 05,001,2025-10-04_23h51.45.541,Motor sequence task,,2025.1.1,59.930839814476265,2025-10-04 23h51.57.942065 +0530,
150,v,66,66,18,v,1,0.5965600000345148,None,,,,,18,66,66,1,412.5665752000059,,412.55074049998075,412.5665752000059,413.55076999997254,413.55076999997254,413.55076999997254,413.55076999997254,413.5675867999671,414.5516593999928,414.5516593999928,415.15310509997653,,,,,v,1,0.5965600000345148,None,Participant 05,001,2025-10-04_23h51.45.541,Motor sequence task,,2025.1.1,59.930839814476265,2025-10-04 23h51.57.942065 +0530,
50,c,67,67,19,c,1,1.0461559999966994,None,,,,,19,67,67,2,415.1697118000011,,415.15349180001067,415.1697118000011,416.15370999998413,416.15370999998413,416.15370999998413,416.15370999998413,416.170431800012,417.15473299997393,417.15473299997393,418.2064640999888,,,,,c,1,1.0461559999966994,None,Participant 05,001,2025-10-04_23h51.45.541,Motor sequence task,,2025.1.1,59.930839814476265,2025-10-04 23h51.57.942065 +0530,
-50,x,68,68,14,x,1,0.5651343999779783,None,,,,,14,68,68,0,418.2225515000173,,418.20690950000426,418.2225515000173,419.20689009997295,419.20689009997295,419.20689009997295,419.20689009997295,419.224794299982,420.20856850000564,420.20856850000564,420.7763500000001,,,,,x,1,0.5651343999779783,None,Participant 05,001,2025-10-04_23h51.45.541,Motor sequence task,,2025.1.1,59.930839814476265,2025-10-04 23h51.57.942065 +0530,
-50,x,69,69,15,x,1,0.5776609999593347,None,,,,,15,69,69,0,420.7920678000082,,420.7766809000168,420.7920678000082,421.7771869999706,421.7771869999706,421.7771869999706,421.7771869999706,421.7956753000035,422.7782125999802,422.7782125999802,423.361611899978,,,,,x,1,0.5776609999593347,None,Participant 05,001,2025-10-04_23h51.45.541,Motor sequence task,,2025.1.1,59.930839814476265,2025-10-04 23h51.57.942065 +0530,
50,c,70,70,20,c,1,0.49713560001691803,None,,,,,20,70,70,2,423.3786110000219,,423.36196469998686,423.3786110000219,424.36345840001013,424.36345840001013,424.36345840001013,424.36345840001013,424.3790797999827,425.3644060000079,425.3644060000079,425.865200500004,,,,,c,1,0.49713560001691803,None,Participant 05,001,2025-10-04_23h51.45.541,Motor sequence task,,2025.1.1,59.930839814476265,2025-10-04 23h51.57.942065 +0530,
-50,x,71,71,16,x,1,0.5577762000029907,None,,,,,16,71,71,0,425.88158859999385,,425.86558139999397,425.88158859999385,426.8660783999949,426.8660783999949,426.8660783999949,426.8660783999949,426.8822270000237,427.8666200999869,427.8666200999869,428.43452429998433,,,,,x,1,0.5577762000029907,None,Participant 05,001,2025-10-04_23h51.45.541,Motor sequence task,,2025.1.1,59.930839814476265,2025-10-04 23h51.57.942065 +0530,
50,c,72,72,21,c,1,0.4652083000401035,None,,,,,21,72,72,2,428.4510145999957,,428.4349077999941,428.4510145999957,429.43490609998116,429.43490609998116,429.43490609998116,429.43490609998116,429.45170109998435,430.4363396000117,430.4363396000117,430.90426649997244,,,,,c,1,0.4652083000401035,None,Participant 05,001,2025-10-04_23h51.45.541,Motor sequence task,,2025.1.1,59.930839814476265,2025-10-04 23h51.57.942065 +0530,
-50,x,73,73,17,x,1,0.6279032000456937,None,,,,,17,73,73,0,430.9195537000196,,430.90464760002214,430.9195537000196,431.9047621000209,431.9047621000209,431.9047621000209,431.9047621000209,431.9215911999927,432.9054655000218,432.9054655000218,433.54008820001036,,,,,x,1,0.6279032000456937,None,Participant 05,001,2025-10-04_23h51.45.541,Motor sequence task,,2025.1.1,59.930839814476265,2025-10-04 23h51.57.942065 +0530,
-150,z,74,74,15,z,1,0.5573925000499003,None,,,,,15,74,74,3,433.5560347000137,,433.54052109998884,433.5560347000137,434.54023029998643,434.54023029998643,434.54023029998643,434.54023029998643,434.55703219998395,435.5420697000227,435.5420697000227,436.1095736999996,,,,,z,1,0.5573925000499003,None,Participant 05,001,2025-10-04_23h51.45.541,Motor sequence task,,2025.1.1,59.930839814476265,2025-10-04 23h51.57.942065 +0530,
-150,z,75,75,16,z,1,0.4569383999914862,None,,,,,16,75,75,3,436.12538739998126,,436.11001960001886,436.12538739998126,437.11026310001034,437.11026310001034,437.11026310001034,437.11026310001034,437.12736260000383,438.1107750000083,438.1107750000083,438.5791797999991,,,,,z,1,0.4569383999914862,None,Participant 05,001,2025-10-04_23h51.45.541,Motor sequence task,,2025.1.1,59.930839814476265,2025-10-04 23h51.57.942065 +0530,
50,c,76,76,22,c,1,0.7094992999918759,None,,,,,22,76,76,2,438.5949923999724,,438.57976829999825,438.5949923999724,439.5793490000069,439.5793490000069,439.5793490000069,439.5793490000069,439.5960896000033,440.5811087000184,440.5811087000184,441.29838270001346,,,,,c,1,0.7094992999918759,None,Participant 05,001,2025-10-04_23h51.45.541,Motor sequence task,,2025.1.1,59.930839814476265,2025-10-04 23h51.57.942065 +0530,
150,v,77,77,19,v,1,0.6607573999790475,None,,,,,19,77,77,1,441.3146876000101,,441.29879149998305,441.3146876000101,442.29890479997266,442.29890479997266,442.29890479997266,442.29890479997266,442.31659960001707,443.3006917000166,443.3006917000166,443.9682668999885,,,,,v,1,0.6607573999790475,None,Participant 05,001,2025-10-04_23h51.45.541,Motor sequence task,,2025.1.1,59.930839814476265,2025-10-04 23h51.57.942065 +0530,
-50,x,78,78,18,x,1,0.5041931999730878,None,,,,,18,78,78,0,443.98478110000724,,443.96866219997173,443.98478110000724,444.9685952999862,444.9685952999862,444.9685952999862,444.9685952999862,444.9856206999975,445.96964789996855,445.96964789996855,446.4872542999801,,,,,x,1,0.5041931999730878,None,Participant 05,001,2025-10-04_23h51.45.541,Motor sequence task,,2025.1.1,59.930839814476265,2025-10-04 23h51.57.942065 +0530,
-150,z,79,79,17,z,1,0.7362543999915943,None,,,,,17,79,79,3,446.5037519999896,,446.48756809998304,446.5037519999896,447.48899679997703,447.48899679997703,447.48899679997703,447.48899679997703,447.50562299997546,448.4902976999874,448.4902976999874,449.2401619000011,,,,,z,1,0.7362543999915943,None,Participant 05,001,2025-10-04_23h51.45.541,Motor sequence task,,2025.1.1,59.930839814476265,2025-10-04 23h51.57.942065 +0530,
150,v,80,80,20,v,1,0.4976566999685019,None,,,,,20,80,80,1,449.2565693000215,,449.2404758000048,449.2565693000215,450.2409184999997,450.2409184999997,450.2409184999997,450.2409184999997,450.2585705000092,451.2438322000089,451.2438322000089,451.7435371999745,,,,,v,1,0.4976566999685019,None,Participant 05,001,2025-10-04_23h51.45.541,Motor sequence task,,2025.1.1,59.930839814476265,2025-10-04 23h51.57.942065 +0530,
-150,z,81,81,18,z,1,0.538638899975922,None,,,,,18,81,81,3,451.7599542000098,,451.7439786000177,451.7599542000098,452.7439837999991,452.7439837999991,452.7439837999991,452.7439837999991,452.7609090000042,453.7450499999686,453.7450499999686,454.2961544999853,,,,,z,1,0.538638899975922,None,Participant 05,001,2025-10-04_23h51.45.541,Motor sequence task,,2025.1.1,59.930839814476265,2025-10-04 23h51.57.942065 +0530,
-150,z,82,82,19,z,1,0.4581822999753058,None,,,,,19,82,82,3,454.312566299981,,454.2966030999669,454.312566299981,455.2966158000054,455.2966158000054,455.2966158000054,455.2966158000054,455.31363649998093,456.2976406000089,456.2976406000089,456.7661274999846,,,,,z,1,0.4581822999753058,None,Participant 05,001,2025-10-04_23h51.45.541,Motor sequence task,,2025.1.1,59.930839814476265,2025-10-04 23h51.57.942065 +0530,
150,v,83,83,21,v,1,0.44243499997537583,None,,,,,21,83,83,1,456.78231059998507,,456.7664915000205,456.78231059998507,457.76654049998615,457.76654049998615,457.76654049998615,457.76654049998615,457.7832539000083,458.7672625000123,458.7672625000123,459.2178599999752,,,,,v,1,0.44243499997537583,None,Participant 05,001,2025-10-04_23h51.45.541,Motor sequence task,,2025.1.1,59.930839814476265,2025-10-04 23h51.57.942065 +0530,
-150,z,84,84,20,z,1,0.38735999999335036,None,,,,,20,84,84,3,459.2341035999707,,459.2182497999747,459.2341035999707,460.2191592999734,460.2191592999734,460.2191592999734,460.2191592999734,460.23571869998705,461.2202128000208,461.2202128000208,461.62179090001155,,,,,z,1,0.38735999999335036,None,Participant 05,001,2025-10-04_23h51.45.541,Motor sequence task,,2025.1.1,59.930839814476265,2025-10-04 23h51.57.942065 +0530,
-50,x,85,85,19,x,1,0.48348759999498725,None,,,,,19,85,85,0,461.63778330001514,,461.622375499981,461.63778330001514,462.6238944000215,462.6238944000215,462.6238944000215,462.6238944000215,462.6382146999822,463.6233300999738,463.6233300999738,464.1234388999874,,,,,x,1,0.48348759999498725,None,Participant 05,001,2025-10-04_23h51.45.541,Motor sequence task,,2025.1.1,59.930839814476265,2025-10-04 23h51.57.942065 +0530,
-50,x,86,86,20,x,1,0.5134903000434861,None,,,,,20,86,86,0,464.1400024999748,,464.1238616000046,464.1400024999748,465.1239714999683,465.1239714999683,465.1239714999683,465.1239714999683,465.1407495000167,466.12603169999784,466.12603169999784,466.64386229997035,,,,,x,1,0.5134903000434861,None,Participant 05,001,2025-10-04_23h51.45.541,Motor sequence task,,2025.1.1,59.930839814476265,2025-10-04 23h51.57.942065 +0530,
-150,z,87,87,21,z,1,0.5664054999942891,None,,,,,21,87,87,3,466.65897380001843,,466.6443074999843,466.65897380001843,467.64429279998876,467.64429279998876,467.64429279998876,467.64429279998876,467.6598936999799,468.6451017999789,468.6451017999789,469.2121105999686,,,,,z,1,0.5664054999942891,None,Participant 05,001,2025-10-04_23h51.45.541,Motor sequence task,,2025.1.1,59.930839814476265,2025-10-04 23h51.57.942065 +0530,
50,c,88,88,23,c,1,0.6843224000185728,None,,,,,23,88,88,2,469.22848390002036,,469.2124984000111,469.22848390002036,470.21356529998593,470.21356529998593,470.21356529998593,470.21356529998593,470.2304880999727,471.2141821999685,471.2141821999685,471.9157002000138,,,,,c,1,0.6843224000185728,None,Participant 05,001,2025-10-04_23h51.45.541,Motor sequence task,,2025.1.1,59.930839814476265,2025-10-04 23h51.57.942065 +0530,
150,v,89,89,22,v,1,0.38964129996020347,None,,,,,22,89,89,1,471.9321425000089,,471.9160733000026,471.9321425000089,472.91608150000684,472.91608150000684,472.91608150000684,472.91608150000684,472.93298360001063,473.9170884999912,473.9170884999912,474.3185627000057,,,,,v,1,0.38964129996020347,None,Participant 05,001,2025-10-04_23h51.45.541,Motor sequence task,,2025.1.1,59.930839814476265,2025-10-04 23h51.57.942065 +0530,
150,v,90,90,23,v,1,0.5380475000129081,None,,,,,23,90,90,1,474.334904599993,,474.31902519997675,474.334904599993,475.3187177000218,475.3187177000218,475.3187177000218,475.3187177000218,475.33538499998394,476.3196491000126,476.3196491000126,476.87092129996745,,,,,v,1,0.5380475000129081,None,Participant 05,001,2025-10-04_23h51.45.541,Motor sequence task,,2025.1.1,59.930839814476265,2025-10-04 23h51.57.942065 +0530,
50,c,91,91,24,c,1,0.43588380003347993,None,,,,,24,91,91,2,476.88723970000865,,476.87129540002206,476.88723970000865,477.8713931000093,477.8713931000093,477.8713931000093,477.8713931000093,477.8883177000098,478.87293439998757,478.87293439998757,479.3239017999731,,,,,c,1,0.43588380003347993,None,Participant 05,001,2025-10-04_23h51.45.541,Motor sequence task,,2025.1.1,59.930839814476265,2025-10-04 23h51.57.942065 +0530,
-150,z,92,92,22,z,1,0.5295124999829568,None,,,,,22,92,92,3,479.34024079999654,,479.3243858999922,479.34024079999654,480.32417410000926,480.32417410000926,480.32417410000926,480.32417410000926,480.34088219999103,481.32511919998797,481.32511919998797,481.8598714999971,,,,,z,1,0.5295124999829568,None,Participant 05,001,2025-10-04_23h51.45.541,Motor sequence task,,2025.1.1,59.930839814476265,2025-10-04 23h51.57.942065 +0530,
-50,x,93,93,21,x,1,0.5576324000139721,None,,,,,21,93,93,0,481.87583919998724,,481.86018469999544,481.87583919998724,482.8602638000157,482.8602638000157,482.8602638000157,482.8602638000157,482.87690949998796,483.8620701999753,483.8620701999753,484.4276467000018,,,,,x,1,0.5576324000139721,None,Participant 05,001,2025-10-04_23h51.45.541,Motor sequence task,,2025.1.1,59.930839814476265,2025-10-04 23h51.57.942065 +0530,
-150,z,94,94,23,z,1,0.876926299999468,None,,,,,23,94,94,3,484.4453515000059,,484.4279999000137,484.4453515000059,485.430738999974,485.430738999974,485.430738999974,485.430738999974,485.4462275999831,486.43137529998785,486.43137529998785,487.3152403999702,,,,,z,1,0.876926299999468,None,Participant 05,001,2025-10-04_23h51.45.541,Motor sequence task,,2025.1.1,59.930839814476265,2025-10-04 23h51.57.942065 +0530,
-150,z,95,95,24,z,1,0.47432739997748286,None,,,,,24,95,95,3,487.3326272999984,,487.31554219999816,487.3326272999984,488.3167306999676,488.3167306999676,488.3167306999676,488.3167306999676,488.3334815999842,489.31774089997634,489.31774089997634,489.8020856999792,,,,,z,1,0.47432739997748286,None,Participant 05,001,2025-10-04_23h51.45.541,Motor sequence task,,2025.1.1,59.930839814476265,2025-10-04 23h51.57.942065 +0530,
-50,x,96,96,22,x,1,0.5192654999555089,None,,,,,22,96,96,0,489.8178651999915,,489.80241190001834,489.8178651999915,490.80212860001484,490.80212860001484,490.80212860001484,490.80212860001484,490.81899030000204,491.803046200017,491.803046200017,492.3387174999807,,,,,x,1,0.5192654999555089,None,Participant 05,001,2025-10-04_23h51.45.541,Motor sequence task,,2025.1.1,59.930839814476265,2025-10-04 23h51.57.942065 +0530,
150,v,97,97,24,v,1,0.49576670001260936,None,,,,,24,97,97,1,492.3538068999769,,492.3390982999699,492.3538068999769,493.3391821999685,493.3391821999685,493.3391821999685,493.3391821999685,493.3562565000029,494.3399769999669,494.3399769999669,494.8408374999999,,,,,v,1,0.49576670001260936,None,Participant 05,001,2025-10-04_23h51.45.541,Motor sequence task,,2025.1.1,59.930839814476265,2025-10-04 23h51.57.942065 +0530,
-50,x,98,98,23,x,1,0.7115360999596305,None,,,,,23,98,98,0,494.85711899999296,,494.8412223000196,494.85711899999296,495.84262100001797,495.84262100001797,495.84262100001797,495.84262100001797,495.8579393000109,496.8423140000086,496.8423140000086,497.5602368999971,,,,,x,1,0.7115360999596305,None,Participant 05,001,2025-10-04_23h51.45.541,Motor sequence task,,2025.1.1,59.930839814476265,2025-10-04 23h51.57.942065 +0530,
-50,x,99,99,24,x,1,0.5612521999864839,None,,,,,24,99,99,0,497.5762907000026,,497.5606324999826,497.5762907000026,498.560737999971,498.560737999971,498.560737999971,498.560737999971,498.5774692000123,499.56153579999227,499.56153579999227,500.12978040002054,,,,,x,1,0.5612521999864839,None,Participant 05,001,2025-10-04_23h51.45.541,Motor sequence task,,2025.1.1,59.930839814476265,2025-10-04 23h51.57.942065 +0530,
