thisN,thisTrialN,thisRepN,mouse.x,mouse.y,mouse.leftButton,mouse.midButton,mouse.rightButton,mouse.time,mouse.clicked_name,trials.thisRepN,trials.thisTrialN,trials.thisN,trials.thisIndex,thisRow.t,notes,num_distr,trial.started,fixation.started,Target.started,mouse.started,trial.stopped,trials.mouse.x,trials.mouse.y,trials.mouse.leftButton,trials.mouse.midButton,trials.mouse.rightButton,trials.mouse.time,trials.mouse.clicked_name,fixation.stopped,participant,session,date,expName,expVersion,psychopyVersion,frameRate,expStart,
0,0,0,[np.float64(0.25083333333333335)],[np.float64(0.08416666666666667)],[1],[0],[0],[0.9237896000122419],['Target'],0,0,0,0,0.03500299999723211,,5,0.02378139999927953,0.03500299999723211,0.03500299999723211,0.02381969999987632,0.9478633999970043,[np.float64(0.25083333333333335)],[np.float64(0.08416666666666667)],[1],[0],[0],[0.9237896000122419],['Target'],,Participant 3,001,2025-09-30_13h37.11.840,visual search task,,2025.1.1,60.507525017490956,2025-09-30 13h37.29.399804 +0530,
1,0,1,[np.float64(-0.22916666666666666)],[np.float64(-0.10416666666666667)],[1],[0],[0],[0.904906600000686],['Target'],1,0,1,0,0.9698123999987729,,5,0.9607544000027701,0.9698123999987729,0.9698123999987729,0.012766399988322519,1.865898499992909,[np.float64(-0.22916666666666666)],[np.float64(-0.10416666666666667)],[1],[0],[0],[0.904906600000686],['Target'],,Participant 3,001,2025-09-30_13h37.11.840,visual search task,,2025.1.1,60.507525017490956,2025-09-30 13h37.29.399804 +0530,
2,0,2,[np.float64(-0.1775)],[np.float64(0.4866666666666667)],[1],[0],[0],[1.4364569999888772],['Target'],2,0,2,0,1.8914822999940952,,5,1.8804856999922777,1.8914822999940952,1.8914822999940952,0.014460999998846091,3.3171622999943793,[np.float64(-0.1775)],[np.float64(0.4866666666666667)],[1],[0],[0],[1.4364569999888772],['Target'],2.897490499992273,Participant 3,001,2025-09-30_13h37.11.840,visual search task,,2025.1.1,60.507525017490956,2025-09-30 13h37.29.399804 +0530,
3,0,3,"[np.float64(0.06416666666666666), np.float64(0.07083333333333333)]","[np.float64(-0.2675), np.float64(-0.265)]","[1, 1]","[0, 0]","[0, 0]","[1.1694223000085913, 1.6371934000053443]","[None, 'Target']",3,0,3,0,3.342754600002081,,5,3.332515100002638,3.342754600002081,3.342754600002081,0.015217399995890446,4.9699729999993,"[np.float64(0.06416666666666666), np.float64(0.07083333333333333)]","[np.float64(-0.2675), np.float64(-0.265)]","[1, 1]","[0, 0]","[0, 0]","[1.1694223000085913, 1.6371934000053443]","[None, 'Target']",4.348928799998248,Participant 3,001,2025-09-30_13h37.11.840,visual search task,,2025.1.1,60.507525017490956,2025-09-30 13h37.29.399804 +0530,
4,0,4,[np.float64(-0.10833333333333334)],[np.float64(-0.3575)],[1],[0],[0],[1.3693132000043988],['Target'],4,0,4,0,5.0143627999932505,,10,5.001559399999678,5.0143627999932505,5.0143627999932505,0.03136600001016632,6.371103199999197,[np.float64(-0.10833333333333334)],[np.float64(-0.3575)],[1],[0],[0],[1.3693132000043988],['Target'],6.017466499994043,Participant 3,001,2025-09-30_13h37.11.840,visual search task,,2025.1.1,60.507525017490956,2025-09-30 13h37.29.399804 +0530,
5,0,5,[np.float64(-0.0175)],[np.float64(-0.37333333333333335)],[1],[0],[0],[0.7691175999934785],['Target'],5,0,5,0,6.395894100001897,,5,6.385895600004005,6.395894100001897,6.395894100001897,0.01456280000275001,7.155231299999286,[np.float64(-0.0175)],[np.float64(-0.37333333333333335)],[1],[0],[0],[0.7691175999934785],['Target'],,Participant 3,001,2025-09-30_13h37.11.840,visual search task,,2025.1.1,60.507525017490956,2025-09-30 13h37.29.399804 +0530,
6,0,6,[np.float64(-0.09083333333333334)],[np.float64(0.08666666666666667)],[1],[0],[0],[1.0882946999918204],['Target'],6,0,6,0,7.198587699997006,,10,7.184047100003227,7.198587699997006,7.198587699997006,0.028676999994786456,8.272585300001083,[np.float64(-0.09083333333333334)],[np.float64(0.08666666666666667)],[1],[0],[0],[1.0882946999918204],['Target'],8.203283399998327,Participant 3,001,2025-09-30_13h37.11.840,visual search task,,2025.1.1,60.507525017490956,2025-09-30 13h37.29.399804 +0530,
7,0,7,[np.float64(-0.07416666666666667)],[np.float64(-0.10583333333333333)],[1],[0],[0],[0.8722420999984024],['Target'],7,0,7,0,8.316183200004161,,10,8.30158179999853,8.316183200004161,8.316183200004161,0.028835299992351793,9.17406970000593,[np.float64(-0.07416666666666667)],[np.float64(-0.10583333333333333)],[1],[0],[0],[0.8722420999984024],['Target'],,Participant 3,001,2025-09-30_13h37.11.840,visual search task,,2025.1.1,60.507525017490956,2025-09-30 13h37.29.399804 +0530,
8,0,8,[np.float64(0.0025)],[np.float64(0.45)],[1],[0],[0],[0.9550686000002315],['Target'],8,0,8,0,9.216367899993202,,10,9.202915799993207,9.216367899993202,9.216367899993202,0.0286809999961406,10.158219000004465,[np.float64(0.0025)],[np.float64(0.45)],[1],[0],[0],[0.9550686000002315],['Target'],,Participant 3,001,2025-09-30_13h37.11.840,visual search task,,2025.1.1,60.507525017490956,2025-09-30 13h37.29.399804 +0530,
9,0,9,[np.float64(-0.18166666666666667)],[np.float64(-0.2808333333333333)],[1],[0],[0],[1.0197661999991396],['Target'],9,0,9,0,10.183651999992435,,5,10.17387630000303,10.183651999992435,10.183651999992435,0.015455899992957711,11.19386339999619,[np.float64(-0.18166666666666667)],[np.float64(-0.2808333333333333)],[1],[0],[0],[1.0197661999991396],['Target'],11.190350599994417,Participant 3,001,2025-09-30_13h37.11.840,visual search task,,2025.1.1,60.507525017490956,2025-09-30 13h37.29.399804 +0530,
10,0,10,[np.float64(-0.37166666666666665)],[np.float64(-0.3125)],[1],[0],[0],[0.8702903999947011],['Target'],10,0,10,0,11.237436700001126,,10,11.223317600000883,11.237436700001126,11.237436700001126,0.029324500006623566,12.09383450000314,[np.float64(-0.37166666666666665)],[np.float64(-0.3125)],[1],[0],[0],[0.8702903999947011],['Target'],,Participant 3,001,2025-09-30_13h37.11.840,visual search task,,2025.1.1,60.507525017490956,2025-09-30 13h37.29.399804 +0530,
11,0,11,[np.float64(0.22333333333333333)],[np.float64(-0.16416666666666666)],[1],[0],[0],[1.6042094000004],['Target'],11,0,11,0,12.134875799994916,,10,12.122089099997538,12.134875799994916,12.134875799994916,0.02808530000038445,13.726484700004221,[np.float64(0.22333333333333333)],[np.float64(-0.16416666666666666)],[1],[0],[0],[1.6042094000004],['Target'],13.142326400004094,Participant 3,001,2025-09-30_13h37.11.840,visual search task,,2025.1.1,60.507525017490956,2025-09-30 13h37.29.399804 +0530,
12,0,12,[np.float64(-0.24666666666666667)],[np.float64(0.3883333333333333)],[1],[0],[0],[1.4086019000096712],['Target'],12,0,12,0,13.767477700006566,,10,13.755086000004667,13.767477700006566,13.767477700006566,0.028456900006858632,15.163898800004972,[np.float64(-0.24666666666666667)],[np.float64(0.3883333333333333)],[1],[0],[0],[1.4086019000096712],['Target'],14.777261099996394,Participant 3,001,2025-09-30_13h37.11.840,visual search task,,2025.1.1,60.507525017490956,2025-09-30 13h37.29.399804 +0530,
13,0,13,[np.float64(0.27666666666666667)],[np.float64(-0.07166666666666667)],[1],[0],[0],[1.1035824999999022],['Target'],13,0,13,0,15.188973800002714,,5,15.178605900000548,15.188973800002714,15.188973800002714,0.014550699997926131,16.282421399999293,[np.float64(0.27666666666666667)],[np.float64(-0.07166666666666667)],[1],[0],[0],[1.1035824999999022],['Target'],16.195241099994746,Participant 3,001,2025-09-30_13h37.11.840,visual search task,,2025.1.1,60.507525017490956,2025-09-30 13h37.29.399804 +0530,
14,0,14,[np.float64(0.0975)],[np.float64(-0.18)],[1],[0],[0],[0.9541827000066405],['Target'],14,0,14,0,16.30493569999817,,5,16.295456199994078,16.30493569999817,16.30493569999817,0.012890499987406656,17.24985469999956,[np.float64(0.0975)],[np.float64(-0.18)],[1],[0],[0],[0.9541827000066405],['Target'],,Participant 3,001,2025-09-30_13h37.11.840,visual search task,,2025.1.1,60.507525017490956,2025-09-30 13h37.29.399804 +0530,
15,0,15,[np.float64(0.2833333333333333)],[np.float64(0.13666666666666666)],[1],[0],[0],[0.9700463000044692],['Target'],15,0,15,0,17.275770499996725,,5,17.265576699996018,17.275770499996725,17.275770499996725,0.015549700008705258,18.235875800004578,[np.float64(0.2833333333333333)],[np.float64(0.13666666666666666)],[1],[0],[0],[0.9700463000044692],['Target'],,Participant 3,001,2025-09-30_13h37.11.840,visual search task,,2025.1.1,60.507525017490956,2025-09-30 13h37.29.399804 +0530,
16,0,16,[np.float64(0.3775)],[np.float64(-0.43833333333333335)],[1],[0],[0],[1.5077100999915274],['Target'],16,0,16,0,18.276935000001686,,10,18.263416500005405,18.276935000001686,18.276935000001686,0.027371700009098276,19.771429300002637,[np.float64(0.3775)],[np.float64(-0.43833333333333335)],[1],[0],[0],[1.5077100999915274],['Target'],19.282236200000625,Participant 3,001,2025-09-30_13h37.11.840,visual search task,,2025.1.1,60.507525017490956,2025-09-30 13h37.29.399804 +0530,
17,0,17,[np.float64(0.49333333333333335)],[np.float64(-0.16583333333333333)],[1],[0],[0],[0.8477945000049658],['Target'],17,0,17,0,19.822089399996912,,10,19.80451329999778,19.822089399996912,19.822089399996912,0.032833899997058325,20.652551899998798,[np.float64(0.49333333333333335)],[np.float64(-0.16583333333333333)],[1],[0],[0],[0.8477945000049658],['Target'],,Participant 3,001,2025-09-30_13h37.11.840,visual search task,,2025.1.1,60.507525017490956,2025-09-30 13h37.29.399804 +0530,
18,0,18,"[np.float64(-0.5091666666666667), np.float64(-0.49166666666666664)]","[np.float64(0.02666666666666667), np.float64(0.029166666666666667)]","[1, 1]","[0, 0]","[0, 0]","[1.3725422999996226, 1.9232909999991534]","[None, 'Target']",18,0,18,0,20.67409709999629,,5,20.665367499997956,20.67409709999629,20.67409709999629,0.012679399995249696,22.588961200002814,"[np.float64(-0.5091666666666667), np.float64(-0.49166666666666664)]","[np.float64(0.02666666666666667), np.float64(0.029166666666666667)]","[1, 1]","[0, 0]","[0, 0]","[1.3725422999996226, 1.9232909999991534]","[None, 'Target']",21.684789899998577,Participant 3,001,2025-09-30_13h37.11.840,visual search task,,2025.1.1,60.507525017490956,2025-09-30 13h37.29.399804 +0530,
19,0,19,[np.float64(0.21583333333333332)],[np.float64(0.1625)],[1],[0],[0],[1.2725011000002269],['Target'],19,0,19,0,22.629461999997147,,10,22.616078000006382,22.629461999997147,22.629461999997147,0.026850099995499477,23.88880450000579,[np.float64(0.21583333333333332)],[np.float64(0.1625)],[1],[0],[0],[1.2725011000002269],['Target'],23.637198500000522,Participant 3,001,2025-09-30_13h37.11.840,visual search task,,2025.1.1,60.507525017490956,2025-09-30 13h37.29.399804 +0530,
20,0,20,[np.float64(-0.2991666666666667)],[np.float64(-0.07833333333333334)],[1],[0],[0],[1.022060600007535],['Target'],20,0,20,0,23.912082399998326,,5,23.903470499994,23.912082399998326,23.912082399998326,0.01430860000255052,24.92574350000359,[np.float64(-0.2991666666666667)],[np.float64(-0.07833333333333334)],[1],[0],[0],[1.022060600007535],['Target'],24.922430099992198,Participant 3,001,2025-09-30_13h37.11.840,visual search task,,2025.1.1,60.507525017490956,2025-09-30 13h37.29.399804 +0530,
21,0,21,"[np.float64(0.02), np.float64(0.005833333333333334)]","[np.float64(-0.34), np.float64(-0.34)]","[1, 1]","[0, 0]","[0, 0]","[1.0764068999997107, 1.60737950001203]","[None, 'Target']",21,0,21,0,24.964075399999274,,10,24.951634700002614,24.964075399999274,24.964075399999274,0.025666999994427897,26.559236899993266,"[np.float64(0.02), np.float64(0.005833333333333334)]","[np.float64(-0.34), np.float64(-0.34)]","[1, 1]","[0, 0]","[0, 0]","[1.0764068999997107, 1.60737950001203]","[None, 'Target']",25.972760399992694,Participant 3,001,2025-09-30_13h37.11.840,visual search task,,2025.1.1,60.507525017490956,2025-09-30 13h37.29.399804 +0530,
22,0,22,[np.float64(0.4766666666666667)],[np.float64(0.4216666666666667)],[1],[0],[0],[1.5685886999999639],['Target'],22,0,22,0,26.586787299995194,,5,26.577441799992812,26.586787299995194,26.586787299995194,0.01783929999510292,28.14628119999543,[np.float64(0.4766666666666667)],[np.float64(0.4216666666666667)],[1],[0],[0],[1.5685886999999639],['Target'],27.59107429999858,Participant 3,001,2025-09-30_13h37.11.840,visual search task,,2025.1.1,60.507525017490956,2025-09-30 13h37.29.399804 +0530,
23,0,23,[np.float64(0.325)],[np.float64(-0.17583333333333334)],[1],[0],[0],[1.3202676999935647],['Target'],23,0,23,0,28.189300099998945,,10,28.1759369999927,28.189300099998945,28.189300099998945,0.02946850001171697,29.496444699994754,[np.float64(0.325)],[np.float64(-0.17583333333333334)],[1],[0],[0],[1.3202676999935647],['Target'],29.192912600003183,Participant 3,001,2025-09-30_13h37.11.840,visual search task,,2025.1.1,60.507525017490956,2025-09-30 13h37.29.399804 +0530,
24,0,24,[np.float64(-0.295)],[np.float64(0.44333333333333336)],[1],[0],[0],[1.29198069999984],['Target'],24,0,24,0,29.534847300004913,,10,29.5222197999974,29.534847300004913,29.534847300004913,0.02555459999712184,30.814399900002172,[np.float64(-0.295)],[np.float64(0.44333333333333336)],[1],[0],[0],[1.29198069999984],['Target'],30.5437196999992,Participant 3,001,2025-09-30_13h37.11.840,visual search task,,2025.1.1,60.507525017490956,2025-09-30 13h37.29.399804 +0530,
25,0,25,[np.float64(-0.49833333333333335)],[np.float64(-0.059166666666666666)],[1],[0],[0],[1.0911769999947865],['Target'],25,0,25,0,30.85300339999958,,10,30.840828500004136,30.85300339999958,30.85300339999958,0.026242799998726696,31.932339499995578,[np.float64(-0.49833333333333335)],[np.float64(-0.059166666666666666)],[1],[0],[0],[1.0911769999947865],['Target'],31.86227680000593,Participant 3,001,2025-09-30_13h37.11.840,visual search task,,2025.1.1,60.507525017490956,2025-09-30 13h37.29.399804 +0530,
26,0,26,"[np.float64(-0.06583333333333333), np.float64(-0.07666666666666666)]","[np.float64(-0.31083333333333335), np.float64(-0.31083333333333335)]","[1, 1]","[0, 0]","[0, 0]","[0.9692575999943074, 1.4857113000034587]","[None, 'Target']",26,0,26,0,31.958307499997318,,5,31.948649900004966,31.958307499997318,31.958307499997318,0.016088999997009523,33.43461810000008,"[np.float64(-0.06583333333333333), np.float64(-0.07666666666666666)]","[np.float64(-0.31083333333333335), np.float64(-0.31083333333333335)]","[1, 1]","[0, 0]","[0, 0]","[0.9692575999943074, 1.4857113000034587]","[None, 'Target']",32.96397129999241,Participant 3,001,2025-09-30_13h37.11.840,visual search task,,2025.1.1,60.507525017490956,2025-09-30 13h37.29.399804 +0530,
27,0,27,[np.float64(-0.3175)],[np.float64(-0.19333333333333333)],[1],[0],[0],[1.107807699998375],['Target'],27,0,27,0,33.474808300001314,,10,33.461122399996384,33.474808300001314,33.474808300001314,0.02628210000693798,34.56917459999386,[np.float64(-0.3175)],[np.float64(-0.19333333333333333)],[1],[0],[0],[1.107807699998375],['Target'],34.48203929999727,Participant 3,001,2025-09-30_13h37.11.840,visual search task,,2025.1.1,60.507525017490956,2025-09-30 13h37.29.399804 +0530,
28,0,28,[np.float64(0.2275)],[np.float64(-0.4683333333333333)],[1],[0],[0],[1.3522665000054985],['Target'],28,0,28,0,34.594496899997466,,5,34.584619200002635,34.594496899997466,34.594496899997466,0.015145299999858253,35.937122499992256,[np.float64(0.2275)],[np.float64(-0.4683333333333333)],[1],[0],[0],[1.3522665000054985],['Target'],35.59972600000037,Participant 3,001,2025-09-30_13h37.11.840,visual search task,,2025.1.1,60.507525017490956,2025-09-30 13h37.29.399804 +0530,
29,0,29,[np.float64(-0.075)],[np.float64(0.39416666666666667)],[1],[0],[0],[1.234957900000154],['Target'],29,0,29,0,35.962188299992704,,5,35.95256849999714,35.962188299992704,35.962188299992704,0.015287700007320382,37.18778680000105,[np.float64(-0.075)],[np.float64(0.39416666666666667)],[1],[0],[0],[1.234957900000154],['Target'],36.96791389999271,Participant 3,001,2025-09-30_13h37.11.840,visual search task,,2025.1.1,60.507525017490956,2025-09-30 13h37.29.399804 +0530,
30,0,30,[np.float64(-0.46)],[np.float64(-0.11916666666666667)],[1],[0],[0],[1.2374791000038385],['Target'],30,0,30,0,37.211154999997234,,5,37.20184660000086,37.211154999997234,37.211154999997234,0.013889499998185784,38.4396063000022,[np.float64(-0.46)],[np.float64(-0.11916666666666667)],[1],[0],[0],[1.2374791000038385],['Target'],38.21967649999715,Participant 3,001,2025-09-30_13h37.11.840,visual search task,,2025.1.1,60.507525017490956,2025-09-30 13h37.29.399804 +0530,
31,0,31,"[np.float64(0.4825), np.float64(0.4575)]","[np.float64(-0.045), np.float64(-0.045)]","[1, 1]","[0, 0]","[0, 0]","[1.3248327000037534, 1.840059399997699]","[None, 'Target']",31,0,31,0,38.479111199994804,,10,38.46598079999967,38.479111199994804,38.479111199994804,0.026163200003793463,40.30629219999537,"[np.float64(0.4825), np.float64(0.4575)]","[np.float64(-0.045), np.float64(-0.045)]","[1, 1]","[0, 0]","[0, 0]","[1.3248327000037534, 1.840059399997699]","[None, 'Target']",39.48768150000251,Participant 3,001,2025-09-30_13h37.11.840,visual search task,,2025.1.1,60.507525017490956,2025-09-30 13h37.29.399804 +0530,
32,0,32,[np.float64(-0.24333333333333335)],[np.float64(0.145)],[1],[0],[0],[1.209602700007963],['Target'],32,0,32,0,40.346922800003085,,10,40.33304660000431,40.346922800003085,40.346922800003085,0.026460299995960668,41.54285820000223,[np.float64(-0.24333333333333335)],[np.float64(0.145)],[1],[0],[0],[1.209602700007963],['Target'],41.35623960000521,Participant 3,001,2025-09-30_13h37.11.840,visual search task,,2025.1.1,60.507525017490956,2025-09-30 13h37.29.399804 +0530,
33,0,33,[np.float64(0.185)],[np.float64(-0.16833333333333333)],[1],[0],[0],[1.0534756999986712],['Target'],33,0,33,0,41.5684387999936,,5,41.55834529999993,41.5684387999936,41.5684387999936,0.015289200004190207,42.612034999998286,[np.float64(0.185)],[np.float64(-0.16833333333333333)],[1],[0],[0],[1.0534756999986712],['Target'],42.57469510000374,Participant 3,001,2025-09-30_13h37.11.840,visual search task,,2025.1.1,60.507525017490956,2025-09-30 13h37.29.399804 +0530,
34,0,34,[np.float64(-0.3825)],[np.float64(0.21083333333333334)],[1],[0],[0],[1.1237276000028942],['Target'],34,0,34,0,42.651229399998556,,10,42.638708600003156,42.651229399998556,42.651229399998556,0.026530600007390603,43.76265550000244,[np.float64(-0.3825)],[np.float64(0.21083333333333334)],[1],[0],[0],[1.1237276000028942],['Target'],43.65945510000165,Participant 3,001,2025-09-30_13h37.11.840,visual search task,,2025.1.1,60.507525017490956,2025-09-30 13h37.29.399804 +0530,
35,0,35,[np.float64(0.13916666666666666)],[np.float64(0.30583333333333335)],[1],[0],[0],[1.3213523000013083],['Target'],35,0,35,0,43.79081469999801,,5,43.776476099999854,43.79081469999801,43.79081469999801,0.01365290000103414,45.09805640000559,[np.float64(0.13916666666666666)],[np.float64(0.30583333333333335)],[1],[0],[0],[1.3213523000013083],['Target'],44.79360750000342,Participant 3,001,2025-09-30_13h37.11.840,visual search task,,2025.1.1,60.507525017490956,2025-09-30 13h37.29.399804 +0530,
36,0,36,[np.float64(-0.2175)],[np.float64(-0.125)],[1],[0],[0],[1.0870304999989457],['Target'],36,0,36,0,45.13959259999683,,10,45.127347000001464,45.13959259999683,45.13959259999683,0.029107100010151044,46.21459770000365,[np.float64(-0.2175)],[np.float64(-0.125)],[1],[0],[0],[1.0870304999989457],['Target'],46.14495590000297,Participant 3,001,2025-09-30_13h37.11.840,visual search task,,2025.1.1,60.507525017490956,2025-09-30 13h37.29.399804 +0530,
37,0,37,[np.float64(-0.03333333333333333)],[np.float64(-0.0925)],[1],[0],[0],[1.7381012000114424],['Target'],37,0,37,0,46.25828460000048,,10,46.24525769999309,46.25828460000048,46.25828460000048,0.030443499999819323,47.9835502999922,[np.float64(-0.03333333333333333)],[np.float64(-0.0925)],[1],[0],[0],[1.7381012000114424],['Target'],47.26292090000061,Participant 3,001,2025-09-30_13h37.11.840,visual search task,,2025.1.1,60.507525017490956,2025-09-30 13h37.29.399804 +0530,
38,0,38,[np.float64(0.14166666666666666)],[np.float64(0.4)],[1],[0],[0],[1.9957168999972055],['Target'],38,0,38,0,48.01814390000072,,10,48.00656130000425,48.01814390000072,48.01814390000072,0.02285979999578558,50.00250020000385,[np.float64(0.14166666666666666)],[np.float64(0.4)],[1],[0],[0],[1.9957168999972055],['Target'],49.03133699999307,Participant 3,001,2025-09-30_13h37.11.840,visual search task,,2025.1.1,60.507525017490956,2025-09-30 13h37.29.399804 +0530,
39,0,39,[np.float64(0.235)],[np.float64(0.445)],[1],[0],[0],[0.9866876000014599],['Target'],39,0,39,0,50.0255954000022,,5,50.01694750000024,50.0255954000022,50.0255954000022,0.01422570001159329,51.00384999999369,[np.float64(0.235)],[np.float64(0.445)],[1],[0],[0],[0.9866876000014599],['Target'],,Participant 3,001,2025-09-30_13h37.11.840,visual search task,,2025.1.1,60.507525017490956,2025-09-30 13h37.29.399804 +0530,
40,0,40,[np.float64(-0.3225)],[np.float64(0.315)],[1],[0],[0],[1.0197732999949949],['Target'],40,0,40,0,51.0282492999977,,5,51.01831650000531,51.0282492999977,51.0282492999977,0.014334999999846332,52.03834400000051,[np.float64(-0.3225)],[np.float64(0.315)],[1],[0],[0],[1.0197732999949949],['Target'],52.03504600000451,Participant 3,001,2025-09-30_13h37.11.840,visual search task,,2025.1.1,60.507525017490956,2025-09-30 13h37.29.399804 +0530,
41,0,41,[np.float64(-0.435)],[np.float64(0.19833333333333333)],[1],[0],[0],[0.8363153999962378],['Target'],41,0,41,0,52.06188239999756,,5,52.05300709999574,52.06188239999756,52.06188239999756,0.014489499997580424,52.88952529999369,[np.float64(-0.435)],[np.float64(0.19833333333333333)],[1],[0],[0],[0.8363153999962378],['Target'],,Participant 3,001,2025-09-30_13h37.11.840,visual search task,,2025.1.1,60.507525017490956,2025-09-30 13h37.29.399804 +0530,
42,0,42,[np.float64(0.04833333333333333)],[np.float64(-0.4116666666666667)],[1],[0],[0],[1.3514201000070898],['Target'],42,0,42,0,52.9332260999945,,10,52.92093079999904,52.9332260999945,52.9332260999945,0.03128609999839682,54.27254489999905,[np.float64(0.04833333333333333)],[np.float64(-0.4116666666666667)],[1],[0],[0],[1.3514201000070898],['Target'],53.93678119999822,Participant 3,001,2025-09-30_13h37.11.840,visual search task,,2025.1.1,60.507525017490956,2025-09-30 13h37.29.399804 +0530,
43,0,43,[np.float64(-0.125)],[np.float64(0.2325)],[1],[0],[0],[1.507323500001803],['Target'],43,0,43,0,54.31334730000526,,10,54.3010282000032,54.31334730000526,54.31334730000526,0.028331199995591305,55.80858779999835,[np.float64(-0.125)],[np.float64(0.2325)],[1],[0],[0],[1.507323500001803],['Target'],55.32179849999375,Participant 3,001,2025-09-30_13h37.11.840,visual search task,,2025.1.1,60.507525017490956,2025-09-30 13h37.29.399804 +0530,
44,0,44,"[np.float64(0.3025), np.float64(0.31), np.float64(0.31833333333333336)]","[np.float64(0.49916666666666665), np.float64(0.49666666666666665), np.float64(0.49666666666666665)]","[1, 1, 1]","[0, 0, 0]","[0, 0, 0]","[2.0772821999998996, 2.557201699994039, 3.109309299994493]","[None, None, 'Target']",44,0,44,0,55.848437099994044,,10,55.83677680000255,55.848437099994044,55.848437099994044,0.027960999999777414,58.94632079999428,"[np.float64(0.3025), np.float64(0.31), np.float64(0.31833333333333336)]","[np.float64(0.49916666666666665), np.float64(0.49666666666666665), np.float64(0.49666666666666665)]","[1, 1, 1]","[0, 0, 0]","[0, 0, 0]","[2.0772821999998996, 2.557201699994039, 3.109309299994493]","[None, None, 'Target']",56.85612470000342,Participant 3,001,2025-09-30_13h37.11.840,visual search task,,2025.1.1,60.507525017490956,2025-09-30 13h37.29.399804 +0530,
45,0,45,[np.float64(-0.07833333333333334)],[np.float64(-0.32083333333333336)],[1],[0],[0],[1.7849344999995083],['Target'],45,0,45,0,58.97034450000501,,5,58.96190559999377,58.97034450000501,58.97034450000501,0.015293199990992434,60.74704190000193,[np.float64(-0.07833333333333334)],[np.float64(-0.32083333333333336)],[1],[0],[0],[1.7849344999995083],['Target'],59.976551800005836,Participant 3,001,2025-09-30_13h37.11.840,visual search task,,2025.1.1,60.507525017490956,2025-09-30 13h37.29.399804 +0530,
46,0,46,"[np.float64(0.14833333333333334), np.float64(0.14583333333333334)]","[np.float64(0.19583333333333333), np.float64(0.19166666666666668)]","[1, 1]","[0, 0]","[0, 0]","[1.0198047000012593, 1.5047830999974394]","[None, 'Target']",46,0,46,0,60.772624000004726,,5,60.76248459999624,60.772624000004726,60.772624000004726,0.01531379998777993,62.2675334999949,"[np.float64(0.14833333333333334), np.float64(0.14583333333333334)]","[np.float64(0.19583333333333333), np.float64(0.19166666666666668)]","[1, 1]","[0, 0]","[0, 0]","[1.0198047000012593, 1.5047830999974394]","[None, 'Target']",61.77908100000059,Participant 3,001,2025-09-30_13h37.11.840,visual search task,,2025.1.1,60.507525017490956,2025-09-30 13h37.29.399804 +0530,
47,0,47,[np.float64(-0.21083333333333334)],[np.float64(0.2916666666666667)],[1],[0],[0],[0.9496612999937497],['Target'],47,0,47,0,62.29531000000134,,5,62.283964799993555,62.29531000000134,62.29531000000134,0.0162179000035394,63.23384739999892,[np.float64(-0.21083333333333334)],[np.float64(0.2916666666666667)],[1],[0],[0],[0.9496612999937497],['Target'],,Participant 3,001,2025-09-30_13h37.11.840,visual search task,,2025.1.1,60.507525017490956,2025-09-30 13h37.29.399804 +0530,
48,0,48,[np.float64(0.1975)],[np.float64(0.4875)],[1],[0],[0],[1.238122700000531],['Target'],48,0,48,0,63.275913699995726,,10,63.26295879999816,63.275913699995726,63.275913699995726,0.028930200001923367,64.50129539999762,[np.float64(0.1975)],[np.float64(0.4875)],[1],[0],[0],[1.238122700000531],['Target'],64.28148380000493,Participant 3,001,2025-09-30_13h37.11.840,visual search task,,2025.1.1,60.507525017490956,2025-09-30 13h37.29.399804 +0530,
49,0,49,[np.float64(0.03333333333333333)],[np.float64(-0.0275)],[1],[0],[0],[1.6908180000027642],['Target'],49,0,49,0,64.54293310000503,,10,64.52945699999691,64.54293310000503,64.54293310000503,0.027914600010262802,66.22050569999556,[np.float64(0.03333333333333333)],[np.float64(-0.0275)],[1],[0],[0],[1.6908180000027642],['Target'],65.54965040000388,Participant 3,001,2025-09-30_13h37.11.840,visual search task,,2025.1.1,60.507525017490956,2025-09-30 13h37.29.399804 +0530,
50,0,50,[np.float64(-0.0075)],[np.float64(-0.09166666666666666)],[1],[0],[0],[1.9548939000087557],['Target'],50,0,50,0,66.26124170000548,,10,66.24803499999689,66.26124170000548,66.26124170000548,0.027234799999860115,68.20312960000592,[np.float64(-0.0075)],[np.float64(-0.09166666666666666)],[1],[0],[0],[1.9548939000087557],['Target'],67.26775929999712,Participant 3,001,2025-09-30_13h37.11.840,visual search task,,2025.1.1,60.507525017490956,2025-09-30 13h37.29.399804 +0530,
51,0,51,[np.float64(0.08083333333333333)],[np.float64(0.16833333333333333)],[1],[0],[0],[0.8900258999929065],['Target'],51,0,51,0,68.22475439999835,,5,68.21601000000373,68.22475439999835,68.22475439999835,0.012732699993648566,69.10623920000216,[np.float64(0.08083333333333333)],[np.float64(0.16833333333333333)],[1],[0],[0],[0.8900258999929065],['Target'],,Participant 3,001,2025-09-30_13h37.11.840,visual search task,,2025.1.1,60.507525017490956,2025-09-30 13h37.29.399804 +0530,
52,0,52,[np.float64(-0.1325)],[np.float64(-0.3225)],[1],[0],[0],[1.2063973999902373],['Target'],52,0,52,0,69.14753299999575,,10,69.13451809999242,69.14753299999575,69.14753299999575,0.02814689998922404,70.34112989999994,[np.float64(-0.1325)],[np.float64(-0.3225)],[1],[0],[0],[1.2063973999902373],['Target'],70.15471940000134,Participant 3,001,2025-09-30_13h37.11.840,visual search task,,2025.1.1,60.507525017490956,2025-09-30 13h37.29.399804 +0530,
53,0,53,"[np.float64(0.415), np.float64(0.40166666666666667)]","[np.float64(-0.4825), np.float64(-0.48833333333333334)]","[1, 1]","[0, 0]","[0, 0]","[2.2193588000081945, 2.7535308000078658]","[None, 'Target']",53,0,53,0,70.36576869999408,,5,70.3565024999989,70.36576869999408,70.36576869999408,0.01510210000560619,73.11037429999851,"[np.float64(0.415), np.float64(0.40166666666666667)]","[np.float64(-0.4825), np.float64(-0.48833333333333334)]","[1, 1]","[0, 0]","[0, 0]","[2.2193588000081945, 2.7535308000078658]","[None, 'Target']",71.37272869999288,Participant 3,001,2025-09-30_13h37.11.840,visual search task,,2025.1.1,60.507525017490956,2025-09-30 13h37.29.399804 +0530,
54,0,54,[np.float64(0.38333333333333336)],[np.float64(-0.25166666666666665)],[1],[0],[0],[1.0524777000100585],['Target'],54,0,54,0,73.13604009999835,,5,73.12584550000611,73.13604009999835,73.13604009999835,0.015249299991410226,74.17854890000308,[np.float64(0.38333333333333336)],[np.float64(-0.25166666666666665)],[1],[0],[0],[1.0524777000100585],['Target'],74.14255669999693,Participant 3,001,2025-09-30_13h37.11.840,visual search task,,2025.1.1,60.507525017490956,2025-09-30 13h37.29.399804 +0530,
55,0,55,"[np.float64(-0.29333333333333333), np.float64(-0.29333333333333333), np.float64(-0.2991666666666667), np.float64(-0.3325)]","[np.float64(-0.19583333333333333), np.float64(-0.19583333333333333), np.float64(-0.19583333333333333), np.float64(-0.2)]","[1, 1, 1, 1]","[0, 0, 0, 0]","[0, 0, 0, 0]","[1.0834398000006331, 1.532198300003074, 2.0199774999928195, 2.735257199994521]","[None, None, None, 'Target']",55,0,55,0,74.20741489999637,,5,74.19648559999769,74.20741489999637,74.20741489999637,0.017812300007790327,76.93198569999367,"[np.float64(-0.29333333333333333), np.float64(-0.29333333333333333), np.float64(-0.2991666666666667), np.float64(-0.3325)]","[np.float64(-0.19583333333333333), np.float64(-0.19583333333333333), np.float64(-0.19583333333333333), np.float64(-0.2)]","[1, 1, 1, 1]","[0, 0, 0, 0]","[0, 0, 0, 0]","[1.0834398000006331, 1.532198300003074, 2.0199774999928195, 2.735257199994521]","[None, None, None, 'Target']",75.21044219999749,Participant 3,001,2025-09-30_13h37.11.840,visual search task,,2025.1.1,60.507525017490956,2025-09-30 13h37.29.399804 +0530,
56,0,56,"[np.float64(0.043333333333333335), np.float64(0.05416666666666667)]","[np.float64(-0.3075), np.float64(-0.31583333333333335)]","[1, 1]","[0, 0]","[0, 0]","[0.9851697999984026, 1.5190292000042973]","[None, 'Target']",56,0,56,0,76.95775079999294,,5,76.94766289999825,76.95775079999294,76.95775079999294,0.015437299996847287,78.46692859999894,"[np.float64(0.043333333333333335), np.float64(0.05416666666666667)]","[np.float64(-0.3075), np.float64(-0.31583333333333335)]","[1, 1]","[0, 0]","[0, 0]","[0.9851697999984026, 1.5190292000042973]","[None, 'Target']",77.9633399000013,Participant 3,001,2025-09-30_13h37.11.840,visual search task,,2025.1.1,60.507525017490956,2025-09-30 13h37.29.399804 +0530,
57,0,57,"[np.float64(0.1375), np.float64(0.1), np.float64(0.1), np.float64(0.11166666666666666)]","[np.float64(-0.4266666666666667), np.float64(-0.42083333333333334), np.float64(-0.42083333333333334), np.float64(-0.42)]","[1, 1, 1, 1]","[0, 0, 0, 0]","[0, 0, 0, 0]","[0.9036030000133906, 1.4537856000097236, 1.9720135000097798, 2.6551809000084177]","[None, None, None, 'Target']",57,0,57,0,78.48949310000171,,5,78.48078769999847,78.48949310000171,78.48949310000171,0.013689100000192411,81.13617959999829,"[np.float64(0.1375), np.float64(0.1), np.float64(0.1), np.float64(0.11166666666666666)]","[np.float64(-0.4266666666666667), np.float64(-0.42083333333333334), np.float64(-0.42083333333333334), np.float64(-0.42)]","[1, 1, 1, 1]","[0, 0, 0, 0]","[0, 0, 0, 0]","[0.9036030000133906, 1.4537856000097236, 1.9720135000097798, 2.6551809000084177]","[None, None, None, 'Target']",79.49842059999355,Participant 3,001,2025-09-30_13h37.11.840,visual search task,,2025.1.1,60.507525017490956,2025-09-30 13h37.29.399804 +0530,
58,0,58,[np.float64(-0.42916666666666664)],[np.float64(-0.2825)],[1],[0],[0],[1.064651300010155],['Target'],58,0,58,0,81.16482970000652,,5,81.15581149999343,81.16482970000652,81.16482970000652,0.0193485000054352,82.22069760000159,[np.float64(-0.42916666666666664)],[np.float64(-0.2825)],[1],[0],[0],[1.064651300010155],['Target'],82.16765390000364,Participant 3,001,2025-09-30_13h37.11.840,visual search task,,2025.1.1,60.507525017490956,2025-09-30 13h37.29.399804 +0530,
59,0,59,[np.float64(0.005833333333333334)],[np.float64(-0.19416666666666665)],[1],[0],[0],[1.1409876999969129],['Target'],59,0,59,0,82.26054909999948,,10,82.24814359999436,82.26054909999948,82.26054909999948,0.027248600003076717,83.38934110000264,[np.float64(0.005833333333333334)],[np.float64(-0.19416666666666665)],[1],[0],[0],[1.1409876999969129],['Target'],83.26921929999662,Participant 3,001,2025-09-30_13h37.11.840,visual search task,,2025.1.1,60.507525017490956,2025-09-30 13h37.29.399804 +0530,
60,0,60,[np.float64(-0.25916666666666666)],[np.float64(-0.016666666666666666)],[1],[0],[0],[1.051750800004811],['Target'],60,0,60,0,83.41479640000034,,5,83.40532130000065,83.41479640000034,83.41479640000034,0.01573219998681452,84.45732139999745,[np.float64(-0.25916666666666666)],[np.float64(-0.016666666666666666)],[1],[0],[0],[1.051750800004811],['Target'],84.42032309999922,Participant 3,001,2025-09-30_13h37.11.840,visual search task,,2025.1.1,60.507525017490956,2025-09-30 13h37.29.399804 +0530,
61,0,61,[np.float64(-0.22083333333333333)],[np.float64(0.285)],[1],[0],[0],[1.5036963999882573],['Target'],61,0,61,0,84.4826854999992,,5,84.47226419999788,84.4826854999992,84.4826854999992,0.014752600007341243,85.97624469999573,[np.float64(-0.22083333333333333)],[np.float64(0.285)],[1],[0],[0],[1.5036963999882573],['Target'],85.4882127000019,Participant 3,001,2025-09-30_13h37.11.840,visual search task,,2025.1.1,60.507525017490956,2025-09-30 13h37.29.399804 +0530,
62,0,62,[np.float64(-0.33)],[np.float64(0.3275)],[1],[0],[0],[1.0693478000030154],['Target'],62,0,62,0,86.00208489999932,,5,85.99139919999288,86.00208489999932,86.00208489999932,0.014987800008384511,87.06099179999728,[np.float64(-0.33)],[np.float64(0.3275)],[1],[0],[0],[1.0693478000030154],['Target'],87.00728859999799,Participant 3,001,2025-09-30_13h37.11.840,visual search task,,2025.1.1,60.507525017490956,2025-09-30 13h37.29.399804 +0530,
63,0,63,[np.float64(-0.31166666666666665)],[np.float64(-0.2841666666666667)],[1],[0],[0],[1.1697803999995813],['Target'],63,0,63,0,87.08617159999267,,5,87.07597449999594,87.08617159999267,87.08617159999267,0.014808200008701533,88.2460035999975,[np.float64(-0.31166666666666665)],[np.float64(-0.2841666666666667)],[1],[0],[0],[1.1697803999995813],['Target'],88.09129490000487,Participant 3,001,2025-09-30_13h37.11.840,visual search task,,2025.1.1,60.507525017490956,2025-09-30 13h37.29.399804 +0530,
64,0,64,"[np.float64(-0.2075), np.float64(-0.18916666666666668)]","[np.float64(-0.37166666666666665), np.float64(-0.38666666666666666)]","[1, 1]","[0, 0]","[0, 0]","[1.1689267000037944, 1.733546400006162]","[None, 'Target']",64,0,64,0,88.27228239999386,,5,88.26152349999757,88.27228239999386,88.27228239999386,0.01533249999920372,89.99530959999538,"[np.float64(-0.2075), np.float64(-0.18916666666666668)]","[np.float64(-0.37166666666666665), np.float64(-0.38666666666666666)]","[1, 1]","[0, 0]","[0, 0]","[1.1689267000037944, 1.733546400006162]","[None, 'Target']",89.2762447999994,Participant 3,001,2025-09-30_13h37.11.840,visual search task,,2025.1.1,60.507525017490956,2025-09-30 13h37.29.399804 +0530,
65,0,65,"[np.float64(0.3333333333333333), np.float64(0.3408333333333333)]","[np.float64(-0.4533333333333333), np.float64(-0.46166666666666667)]","[1, 1]","[0, 0]","[0, 0]","[1.7034227999974973, 2.2711668999982066]","[None, 'Target']",65,0,65,0,90.0203285000025,,5,90.01040440000361,90.0203285000025,90.0203285000025,0.014869199992972426,92.28181719999702,"[np.float64(0.3333333333333333), np.float64(0.3408333333333333)]","[np.float64(-0.4533333333333333), np.float64(-0.46166666666666667)]","[1, 1]","[0, 0]","[0, 0]","[1.7034227999974973, 2.2711668999982066]","[None, 'Target']",91.02757900000142,Participant 3,001,2025-09-30_13h37.11.840,visual search task,,2025.1.1,60.507525017490956,2025-09-30 13h37.29.399804 +0530,
66,0,66,[np.float64(0.05)],[np.float64(0.08583333333333333)],[1],[0],[0],[1.1417015999904834],['Target'],66,0,66,0,92.32240770000499,,10,92.30890519999957,92.32240770000499,92.32240770000499,0.026871499998378567,93.4508269999933,[np.float64(0.05)],[np.float64(0.08583333333333333)],[1],[0],[0],[1.1417015999904834],['Target'],93.33006320000277,Participant 3,001,2025-09-30_13h37.11.840,visual search task,,2025.1.1,60.507525017490956,2025-09-30 13h37.29.399804 +0530,
67,0,67,"[np.float64(0.39), np.float64(0.385)]","[np.float64(0.32916666666666666), np.float64(0.3283333333333333)]","[1, 1]","[0, 0]","[0, 0]","[1.1688728999870364, 1.6520378999994136]","[None, 'Target']",67,0,67,0,93.47616330000164,,5,93.46586630000093,93.47616330000164,93.47616330000164,0.014569199993275106,95.11812299999292,"[np.float64(0.39), np.float64(0.385)]","[np.float64(0.32916666666666666), np.float64(0.3283333333333333)]","[1, 1]","[0, 0]","[0, 0]","[1.1688728999870364, 1.6520378999994136]","[None, 'Target']",94.48144119999779,Participant 3,001,2025-09-30_13h37.11.840,visual search task,,2025.1.1,60.507525017490956,2025-09-30 13h37.29.399804 +0530,
68,0,68,[np.float64(-0.3725)],[np.float64(0.09083333333333334)],[1],[0],[0],[1.724222999997437],['Target'],68,0,68,0,95.16328690000228,,10,95.14793979999376,95.16328690000228,95.16328690000228,0.02960329999041278,96.87240310000197,[np.float64(-0.3725)],[np.float64(0.09083333333333334)],[1],[0],[0],[1.724222999997437],['Target'],96.16648559999885,Participant 3,001,2025-09-30_13h37.11.840,visual search task,,2025.1.1,60.507525017490956,2025-09-30 13h37.29.399804 +0530,
69,0,69,[np.float64(-0.0175)],[np.float64(0.1625)],[1],[0],[0],[1.6899706999975024],['Target'],69,0,69,0,96.91407450000406,,10,96.90003079999587,96.91407450000406,96.91407450000406,0.0274273999966681,98.59027070000593,[np.float64(-0.0175)],[np.float64(0.1625)],[1],[0],[0],[1.6899706999975024],['Target'],97.91789290000452,Participant 3,001,2025-09-30_13h37.11.840,visual search task,,2025.1.1,60.507525017490956,2025-09-30 13h37.29.399804 +0530,
70,0,70,"[np.float64(0.38083333333333336), np.float64(0.38083333333333336), np.float64(0.39916666666666667)]","[np.float64(-0.29583333333333334), np.float64(-0.2966666666666667), np.float64(-0.29833333333333334)]","[1, 1, 1]","[0, 0, 0]","[0, 0, 0]","[1.2352500000124564, 1.7996977000002516, 2.519426900005783]","[None, None, 'Target']",70,0,70,0,98.61467090000224,,5,98.60531600000104,98.61467090000224,98.61467090000224,0.014824700003373437,101.1249722999928,"[np.float64(0.38083333333333336), np.float64(0.38083333333333336), np.float64(0.39916666666666667)]","[np.float64(-0.29583333333333334), np.float64(-0.2966666666666667), np.float64(-0.29833333333333334)]","[1, 1, 1]","[0, 0, 0]","[0, 0, 0]","[1.2352500000124564, 1.7996977000002516, 2.519426900005783]","[None, None, 'Target']",99.62017470000137,Participant 3,001,2025-09-30_13h37.11.840,visual search task,,2025.1.1,60.507525017490956,2025-09-30 13h37.29.399804 +0530,
71,0,71,[np.float64(-0.12583333333333332)],[np.float64(0.27666666666666667)],[1],[0],[0],[1.3235511999955634],['Target'],71,0,71,0,101.1652577000059,,10,101.15226010000333,101.1652577000059,101.1652577000059,0.02710960000695195,102.47606269999233,[np.float64(-0.12583333333333332)],[np.float64(0.27666666666666667)],[1],[0],[0],[1.3235511999955634],['Target'],102.17273209999257,Participant 3,001,2025-09-30_13h37.11.840,visual search task,,2025.1.1,60.507525017490956,2025-09-30 13h37.29.399804 +0530,
72,0,72,"[np.float64(0.42916666666666664), np.float64(0.4425)]","[np.float64(0.4608333333333333), np.float64(0.4725)]","[1, 1]","[0, 0]","[0, 0]","[2.257105500000762, 2.8888346000021556]","[None, 'Target']",72,0,72,0,102.51984350000566,,10,102.50560799999221,102.51984350000566,102.51984350000566,0.02934560000721831,105.39470540000184,"[np.float64(0.42916666666666664), np.float64(0.4425)]","[np.float64(0.4608333333333333), np.float64(0.4725)]","[1, 1]","[0, 0]","[0, 0]","[2.257105500000762, 2.8888346000021556]","[None, 'Target']",103.52453749999404,Participant 3,001,2025-09-30_13h37.11.840,visual search task,,2025.1.1,60.507525017490956,2025-09-30 13h37.29.399804 +0530,
73,0,73,[np.float64(-0.3933333333333333)],[np.float64(-0.0175)],[1],[0],[0],[1.2547174999926938],['Target'],73,0,73,0,105.41811299999245,,5,105.40924029999587,105.41811299999245,105.41811299999245,0.014236399991204962,106.664222899999,[np.float64(-0.3933333333333333)],[np.float64(-0.0175)],[1],[0],[0],[1.2547174999926938],['Target'],106.42859369999496,Participant 3,001,2025-09-30_13h37.11.840,visual search task,,2025.1.1,60.507525017490956,2025-09-30 13h37.29.399804 +0530,
74,0,74,[np.float64(-0.5016666666666667)],[np.float64(-0.42)],[1],[0],[0],[1.0866624000045704],['Target'],74,0,74,0,106.70854300000065,,10,106.69469410000602,106.70854300000065,106.70854300000065,0.03022909999708645,107.7816113000008,[np.float64(-0.5016666666666667)],[np.float64(-0.42)],[1],[0],[0],[1.0866624000045704],['Target'],107.7125226999924,Participant 3,001,2025-09-30_13h37.11.840,visual search task,,2025.1.1,60.507525017490956,2025-09-30 13h37.29.399804 +0530,
75,0,75,[np.float64(0.25916666666666666)],[np.float64(0.03833333333333333)],[1],[0],[0],[1.4264475999952992],['Target'],75,0,75,0,107.82063430000562,,10,107.80856059999496,107.82063430000562,107.82063430000562,0.026696000000811182,109.23523459999706,[np.float64(0.25916666666666666)],[np.float64(0.03833333333333333)],[1],[0],[0],[1.4264475999952992],['Target'],108.83069509999768,Participant 3,001,2025-09-30_13h37.11.840,visual search task,,2025.1.1,60.507525017490956,2025-09-30 13h37.29.399804 +0530,
76,0,76,[np.float64(0.03333333333333333)],[np.float64(-0.2525)],[1],[0],[0],[1.1889586000033887],['Target'],76,0,76,0,109.27443449999555,,10,109.26300679999986,109.27443449999555,109.27443449999555,0.027525700003025122,110.45217390000471,[np.float64(0.03333333333333333)],[np.float64(-0.2525)],[1],[0],[0],[1.1889586000033887],['Target'],110.28214470000239,Participant 3,001,2025-09-30_13h37.11.840,visual search task,,2025.1.1,60.507525017490956,2025-09-30 13h37.29.399804 +0530,
77,0,77,[np.float64(-0.18166666666666667)],[np.float64(-0.395)],[1],[0],[0],[1.0522946000128286],['Target'],77,0,77,0,110.47727249999298,,5,110.46723330000532,110.47727249999298,110.47727249999298,0.01484629999322351,111.51976830000058,[np.float64(-0.18166666666666667)],[np.float64(-0.395)],[1],[0],[0],[1.0522946000128286],['Target'],111.48357080000278,Participant 3,001,2025-09-30_13h37.11.840,visual search task,,2025.1.1,60.507525017490956,2025-09-30 13h37.29.399804 +0530,
78,0,78,[np.float64(0.08083333333333333)],[np.float64(0.42)],[1],[0],[0],[1.7084698999969987],['Target'],78,0,78,0,111.56043230000068,,10,111.5480591999949,111.56043230000068,111.56043230000068,0.02811440000368748,113.25676139999996,[np.float64(0.08083333333333333)],[np.float64(0.42)],[1],[0],[0],[1.7084698999969987],['Target'],112.56789099999878,Participant 3,001,2025-09-30_13h37.11.840,visual search task,,2025.1.1,60.507525017490956,2025-09-30 13h37.29.399804 +0530,
79,0,79,[np.float64(-0.056666666666666664)],[np.float64(0.20583333333333334)],[1],[0],[0],[0.86803769999824],['Target'],79,0,79,0,113.28095820000453,,5,113.27107899999828,113.28095820000453,113.28095820000453,0.01415679999627173,114.13934759999393,[np.float64(-0.056666666666666664)],[np.float64(0.20583333333333334)],[1],[0],[0],[0.86803769999824],['Target'],,Participant 3,001,2025-09-30_13h37.11.840,visual search task,,2025.1.1,60.507525017490956,2025-09-30 13h37.29.399804 +0530,
80,0,80,[np.float64(-0.41083333333333333)],[np.float64(-0.34)],[1],[0],[0],[1.0704989999940153],['Target'],80,0,80,0,114.1823463000037,,10,114.16844920000585,114.1823463000037,114.1823463000037,0.02896149999287445,115.2391956000065,[np.float64(-0.41083333333333333)],[np.float64(-0.34)],[1],[0],[0],[1.0704989999940153],['Target'],115.18716509999649,Participant 3,001,2025-09-30_13h37.11.840,visual search task,,2025.1.1,60.507525017490956,2025-09-30 13h37.29.399804 +0530,
81,0,81,[np.float64(0.2425)],[np.float64(-0.4633333333333333)],[1],[0],[0],[1.0378860000055283],['Target'],81,0,81,0,115.2632159999921,,5,115.25414760000422,115.2632159999921,115.2632159999921,0.014747400011401623,116.29225600000063,[np.float64(0.2425)],[np.float64(-0.4633333333333333)],[1],[0],[0],[1.0378860000055283],['Target'],116.27192600000126,Participant 3,001,2025-09-30_13h37.11.840,visual search task,,2025.1.1,60.507525017490956,2025-09-30 13h37.29.399804 +0530,
82,0,82,"[np.float64(0.4658333333333333), np.float64(0.48083333333333333)]","[np.float64(0.125), np.float64(0.13666666666666666)]","[1, 1]","[0, 0]","[0, 0]","[1.1375058999983594, 1.6381874999933643]","[None, 'Target']",82,0,82,0,116.33374259999255,,10,116.32110909999756,116.33374259999255,116.33374259999255,0.028679299997747876,117.95955420000246,"[np.float64(0.4658333333333333), np.float64(0.48083333333333333)]","[np.float64(0.125), np.float64(0.13666666666666666)]","[1, 1]","[0, 0]","[0, 0]","[1.1375058999983594, 1.6381874999933643]","[None, 'Target']",117.3396206000034,Participant 3,001,2025-09-30_13h37.11.840,visual search task,,2025.1.1,60.507525017490956,2025-09-30 13h37.29.399804 +0530,
83,0,83,[np.float64(-0.0025)],[np.float64(-0.07833333333333334)],[1],[0],[0],[1.5875133000081405],['Target'],83,0,83,0,117.98460100000375,,5,117.97508229999221,117.98460100000375,117.98460100000375,0.01527689999784343,119.5628441000008,[np.float64(-0.0025)],[np.float64(-0.07833333333333334)],[1],[0],[0],[1.5875133000081405],['Target'],118.9934804999939,Participant 3,001,2025-09-30_13h37.11.840,visual search task,,2025.1.1,60.507525017490956,2025-09-30 13h37.29.399804 +0530,
84,0,84,"[np.float64(0.32083333333333336), np.float64(0.2775)]","[np.float64(-0.030833333333333334), np.float64(-0.030833333333333334)]","[1, 1]","[0, 0]","[0, 0]","[0.7990093999978853, 1.3506051000003936]","[None, 'Target']",84,0,84,0,119.58848649999709,,5,119.57882759999484,119.58848649999709,119.58848649999709,0.01581110000552144,120.92966470000101,"[np.float64(0.32083333333333336), np.float64(0.2775)]","[np.float64(-0.030833333333333334), np.float64(-0.030833333333333334)]","[1, 1]","[0, 0]","[0, 0]","[0.7990093999978853, 1.3506051000003936]","[None, 'Target']",120.59381089999806,Participant 3,001,2025-09-30_13h37.11.840,visual search task,,2025.1.1,60.507525017490956,2025-09-30 13h37.29.399804 +0530,
85,0,85,[np.float64(-0.20083333333333334)],[np.float64(-0.4141666666666667)],[1],[0],[0],[1.2862045000074431],['Target'],85,0,85,0,120.95609239999612,,5,120.94573969999328,120.95609239999612,120.95609239999612,0.015897599994787015,122.23219270000118,[np.float64(-0.20083333333333334)],[np.float64(-0.4141666666666667)],[1],[0],[0],[1.2862045000074431],['Target'],121.9637944999995,Participant 3,001,2025-09-30_13h37.11.840,visual search task,,2025.1.1,60.507525017490956,2025-09-30 13h37.29.399804 +0530,
86,0,86,[np.float64(-0.17)],[np.float64(-0.19)],[1],[0],[0],[0.8620930000033695],['Target'],86,0,86,0,122.26889720000327,,10,122.2566283000051,122.26889720000327,122.26889720000327,0.024206399990362115,123.11894479999319,[np.float64(-0.17)],[np.float64(-0.19)],[1],[0],[0],[0.8620930000033695],['Target'],,Participant 3,001,2025-09-30_13h37.11.840,visual search task,,2025.1.1,60.507525017490956,2025-09-30 13h37.29.399804 +0530,
87,0,87,"[np.float64(0.14583333333333334), np.float64(0.15416666666666667), np.float64(0.1725)]","[np.float64(-0.17), np.float64(-0.1725), np.float64(-0.1825)]","[1, 1, 1]","[0, 0, 0]","[0, 0, 0]","[0.8667346000001999, 1.3661538999876939, 1.9511907999985851]","[None, None, 'Target']",87,0,87,0,123.1652996000048,,10,123.15008880000096,123.1652996000048,123.1652996000048,0.030908799992175773,125.10154410000541,"[np.float64(0.14583333333333334), np.float64(0.15416666666666667), np.float64(0.1725)]","[np.float64(-0.17), np.float64(-0.1725), np.float64(-0.1825)]","[1, 1, 1]","[0, 0, 0]","[0, 0, 0]","[0.8667346000001999, 1.3661538999876939, 1.9511907999985851]","[None, None, 'Target']",124.18052920000628,Participant 3,001,2025-09-30_13h37.11.840,visual search task,,2025.1.1,60.507525017490956,2025-09-30 13h37.29.399804 +0530,
88,0,88,"[np.float64(-0.05), np.float64(-0.034166666666666665)]","[np.float64(-0.34833333333333333), np.float64(-0.34833333333333333)]","[1, 1]","[0, 0]","[0, 0]","[0.786593199998606, 1.2855197000026237]","[None, 'Target']",88,0,88,0,125.12749280000571,,5,125.11728730000323,125.12749280000571,125.12749280000571,0.01545839999744203,126.40306139999302,"[np.float64(-0.05), np.float64(-0.034166666666666665)]","[np.float64(-0.34833333333333333), np.float64(-0.34833333333333333)]","[1, 1]","[0, 0]","[0, 0]","[0.786593199998606, 1.2855197000026237]","[None, 'Target']",126.1326573999977,Participant 3,001,2025-09-30_13h37.11.840,visual search task,,2025.1.1,60.507525017490956,2025-09-30 13h37.29.399804 +0530,
89,0,89,[np.float64(0.2633333333333333)],[np.float64(-0.3908333333333333)],[1],[0],[0],[1.10591930001101],['Target'],89,0,89,0,126.4435061999975,,10,126.43092620000243,126.4435061999975,126.4435061999975,0.027653400000417605,127.53711710000061,[np.float64(0.2633333333333333)],[np.float64(-0.3908333333333333)],[1],[0],[0],[1.10591930001101],['Target'],127.4509040999983,Participant 3,001,2025-09-30_13h37.11.840,visual search task,,2025.1.1,60.507525017490956,2025-09-30 13h37.29.399804 +0530,
90,0,90,[np.float64(-0.4791666666666667)],[np.float64(0.10333333333333333)],[1],[0],[0],[1.2709516000031726],['Target'],90,0,90,0,127.56162759999279,,5,127.55228720000014,127.56162759999279,127.56162759999279,0.014928299991879612,128.82346099999268,[np.float64(-0.4791666666666667)],[np.float64(0.10333333333333333)],[1],[0],[0],[1.2709516000031726],['Target'],128.56862390000606,Participant 3,001,2025-09-30_13h37.11.840,visual search task,,2025.1.1,60.507525017490956,2025-09-30 13h37.29.399804 +0530,
91,0,91,[np.float64(0.08416666666666667)],[np.float64(0.4875)],[1],[0],[0],[1.4222049999953015],['Target'],91,0,91,0,128.8637669000018,,10,128.8512919000059,128.8637669000018,128.8637669000018,0.027690399991115555,130.27370370000426,[np.float64(0.08416666666666667)],[np.float64(0.4875)],[1],[0],[0],[1.4222049999953015],['Target'],129.87024910000036,Participant 3,001,2025-09-30_13h37.11.840,visual search task,,2025.1.1,60.507525017490956,2025-09-30 13h37.29.399804 +0530,
92,0,92,[np.float64(-0.3566666666666667)],[np.float64(0.21083333333333334)],[1],[0],[0],[0.8393801999918651],['Target'],92,0,92,0,130.31637760000012,,10,130.3018432999961,130.31637760000012,130.31637760000012,0.027992399991489947,131.14153480000095,[np.float64(-0.3566666666666667)],[np.float64(0.21083333333333334)],[1],[0],[0],[0.8393801999918651],['Target'],,Participant 3,001,2025-09-30_13h37.11.840,visual search task,,2025.1.1,60.507525017490956,2025-09-30 13h37.29.399804 +0530,
93,0,93,"[np.float64(0.3908333333333333), np.float64(0.42)]","[np.float64(-0.13166666666666665), np.float64(-0.1)]","[1, 1]","[0, 0]","[0, 0]","[1.2398525000025984, 1.9562550999980886]","[None, 'Target']",93,0,93,0,131.18462929999805,,10,131.16992970000138,131.18462929999805,131.18462929999805,0.028239599996595643,133.1264136999962,"[np.float64(0.3908333333333333), np.float64(0.42)]","[np.float64(-0.13166666666666665), np.float64(-0.1)]","[1, 1]","[0, 0]","[0, 0]","[1.2398525000025984, 1.9562550999980886]","[None, 'Target']",132.18951549999474,Participant 3,001,2025-09-30_13h37.11.840,visual search task,,2025.1.1,60.507525017490956,2025-09-30 13h37.29.399804 +0530,
94,0,94,[np.float64(-0.11583333333333333)],[np.float64(-0.2608333333333333)],[1],[0],[0],[1.005029400010244],['Target'],94,0,94,0,133.16902519999712,,10,133.15555419999873,133.16902519999712,133.16902519999712,0.028933599998708814,134.1608234000014,[np.float64(-0.11583333333333333)],[np.float64(-0.2608333333333333)],[1],[0],[0],[1.005029400010244],['Target'],134.18594680000388,Participant 3,001,2025-09-30_13h37.11.840,visual search task,,2025.1.1,60.507525017490956,2025-09-30 13h37.29.399804 +0530,
95,0,95,[np.float64(0.17833333333333334)],[np.float64(-0.18)],[1],[0],[0],[0.8525705999927595],['Target'],95,0,95,0,134.18594680000388,,5,134.17604399999254,134.18594680000388,134.18594680000388,0.015060100005939603,135.02885909999895,[np.float64(0.17833333333333334)],[np.float64(-0.18)],[1],[0],[0],[0.8525705999927595],['Target'],,Participant 3,001,2025-09-30_13h37.11.840,visual search task,,2025.1.1,60.507525017490956,2025-09-30 13h37.29.399804 +0530,
96,0,96,"[np.float64(-0.2916666666666667), np.float64(-0.285), np.float64(-0.25083333333333335)]","[np.float64(0.016666666666666666), np.float64(0.013333333333333334), np.float64(0.0016666666666666668)]","[1, 1, 1]","[0, 0, 0]","[0, 0, 0]","[0.8518260999990162, 1.3517662000085693, 1.9511878000048455]","[None, None, 'Target']",96,0,96,0,135.056276599993,,5,135.04440270000487,135.056276599993,135.056276599993,0.015369200002169237,136.99587159999646,"[np.float64(-0.2916666666666667), np.float64(-0.285), np.float64(-0.25083333333333335)]","[np.float64(0.016666666666666666), np.float64(0.013333333333333334), np.float64(0.0016666666666666668)]","[1, 1, 1]","[0, 0, 0]","[0, 0, 0]","[0.8518260999990162, 1.3517662000085693, 1.9511878000048455]","[None, None, 'Target']",136.06049319999875,Participant 3,001,2025-09-30_13h37.11.840,visual search task,,2025.1.1,60.507525017490956,2025-09-30 13h37.29.399804 +0530,
97,0,97,[np.float64(0.41583333333333333)],[np.float64(-0.04)],[1],[0],[0],[1.1032171999977436],['Target'],97,0,97,0,137.02170019999903,,5,137.0120246000006,137.02170019999903,137.02170019999903,0.015942700003506616,138.1155640999932,[np.float64(0.41583333333333333)],[np.float64(-0.04)],[1],[0],[0],[1.1032171999977436],['Target'],138.02911499999755,Participant 3,001,2025-09-30_13h37.11.840,visual search task,,2025.1.1,60.507525017490956,2025-09-30 13h37.29.399804 +0530,
98,0,98,"[np.float64(0.4658333333333333), np.float64(0.425), np.float64(0.43583333333333335)]","[np.float64(-0.11833333333333333), np.float64(-0.1375), np.float64(-0.14166666666666666)]","[1, 1, 1]","[0, 0, 0]","[0, 0, 0]","[0.8256032000062987, 1.3919959000049857, 1.8943222999951104]","[None, None, 'Target']",98,0,98,0,138.1516069999925,,10,138.14034589999937,138.1516069999925,138.1516069999925,0.024612499997601844,140.0348723999923,"[np.float64(0.4658333333333333), np.float64(0.425), np.float64(0.43583333333333335)]","[np.float64(-0.11833333333333333), np.float64(-0.1375), np.float64(-0.14166666666666666)]","[1, 1, 1]","[0, 0, 0]","[0, 0, 0]","[0.8256032000062987, 1.3919959000049857, 1.8943222999951104]","[None, None, 'Target']",139.163538599998,Participant 3,001,2025-09-30_13h37.11.840,visual search task,,2025.1.1,60.507525017490956,2025-09-30 13h37.29.399804 +0530,
99,0,99,[np.float64(0.1225)],[np.float64(0.4666666666666667)],[1],[0],[0],[1.7527919999993173],['Target'],99,0,99,0,140.0606176000001,,5,140.05209090000426,140.0606176000001,140.0606176000001,0.0169235000066692,141.80508599999303,[np.float64(0.1225)],[np.float64(0.4666666666666667)],[1],[0],[0],[1.7527919999993173],['Target'],141.06580480000412,Participant 3,001,2025-09-30_13h37.11.840,visual search task,,2025.1.1,60.507525017490956,2025-09-30 13h37.29.399804 +0530,
100,0,100,"[np.float64(0.1225), np.float64(-0.4533333333333333), np.float64(-0.4325)]","[np.float64(0.4666666666666667), np.float64(0.09166666666666666), np.float64(0.115)]","[1, 1, 1]","[0, 0, 0]","[0, 0, 0]","[0.21616009999706876, 1.0691167000040878, 1.63572629999544]","[None, None, 'Target']",100,0,100,0,141.8286999999982,,5,141.81885399999737,141.8286999999982,141.8286999999982,0.013566800000262447,143.4547836999991,"[np.float64(0.1225), np.float64(-0.4533333333333333), np.float64(-0.4325)]","[np.float64(0.4666666666666667), np.float64(0.09166666666666666), np.float64(0.115)]","[1, 1, 1]","[0, 0, 0]","[0, 0, 0]","[0.21616009999706876, 1.0691167000040878, 1.63572629999544]","[None, None, 'Target']",142.8345410000038,Participant 3,001,2025-09-30_13h37.11.840,visual search task,,2025.1.1,60.507525017490956,2025-09-30 13h37.29.399804 +0530,
101,0,101,[np.float64(-0.28583333333333333)],[np.float64(0.1025)],[1],[0],[0],[0.888621799997054],['Target'],101,0,101,0,143.49713089999568,,10,143.48325760000444,143.49713089999568,143.49713089999568,0.028258200007257983,144.37215989999822,[np.float64(-0.28583333333333333)],[np.float64(0.1025)],[1],[0],[0],[0.888621799997054],['Target'],,Participant 3,001,2025-09-30_13h37.11.840,visual search task,,2025.1.1,60.507525017490956,2025-09-30 13h37.29.399804 +0530,
102,0,102,[np.float64(-0.2816666666666667)],[np.float64(0.295)],[1],[0],[0],[0.8700005999999121],['Target'],102,0,102,0,144.39777549999417,,5,144.3872216000018,144.39777549999417,144.39777549999417,0.014684499998111278,145.25747529999353,[np.float64(-0.2816666666666667)],[np.float64(0.295)],[1],[0],[0],[0.8700005999999121],['Target'],,Participant 3,001,2025-09-30_13h37.11.840,visual search task,,2025.1.1,60.507525017490956,2025-09-30 13h37.29.399804 +0530,
103,0,103,[np.float64(0.07833333333333334)],[np.float64(-0.335)],[1],[0],[0],[1.0679409000003943],['Target'],103,0,103,0,145.28237230000377,,5,145.27331210000557,145.28237230000377,145.28237230000377,0.015654899994842708,146.3414608000021,[np.float64(0.07833333333333334)],[np.float64(-0.335)],[1],[0],[0],[1.0679409000003943],['Target'],146.28816939999524,Participant 3,001,2025-09-30_13h37.11.840,visual search task,,2025.1.1,60.507525017490956,2025-09-30 13h37.29.399804 +0530,
104,0,104,"[np.float64(0.375), np.float64(0.3591666666666667)]","[np.float64(0.42916666666666664), np.float64(0.43083333333333335)]","[1, 1]","[0, 0]","[0, 0]","[0.9691162000090117, 1.5196985000075074]","[None, 'Target']",104,0,104,0,146.36662349999824,,5,146.35702660000243,146.36662349999824,146.36662349999824,0.015338599987444468,147.8769628000009,"[np.float64(0.375), np.float64(0.3591666666666667)]","[np.float64(0.42916666666666664), np.float64(0.43083333333333335)]","[1, 1]","[0, 0]","[0, 0]","[0.9691162000090117, 1.5196985000075074]","[None, 'Target']",147.37244510000164,Participant 3,001,2025-09-30_13h37.11.840,visual search task,,2025.1.1,60.507525017490956,2025-09-30 13h37.29.399804 +0530,
105,0,105,[np.float64(0.49833333333333335)],[np.float64(0.08666666666666667)],[1],[0],[0],[1.1258134999952745],['Target'],105,0,105,0,147.92032879999897,,10,147.90526650000538,147.92032879999897,147.92032879999897,0.028105999997933395,149.03132920000644,[np.float64(0.49833333333333335)],[np.float64(0.08666666666666667)],[1],[0],[0],[1.1258134999952745],['Target'],148.92462190000515,Participant 3,001,2025-09-30_13h37.11.840,visual search task,,2025.1.1,60.507525017490956,2025-09-30 13h37.29.399804 +0530,
106,0,106,[np.float64(0.43916666666666665)],[np.float64(0.3975)],[1],[0],[0],[1.219844599996577],['Target'],106,0,106,0,149.0716170999949,,10,149.05801740000607,149.0716170999949,149.0716170999949,0.026462900001206435,150.2780647000036,[np.float64(0.43916666666666665)],[np.float64(0.3975)],[1],[0],[0],[1.219844599996577],['Target'],150.07552280000527,Participant 3,001,2025-09-30_13h37.11.840,visual search task,,2025.1.1,60.507525017490956,2025-09-30 13h37.29.399804 +0530,
107,0,107,[np.float64(0.23583333333333334)],[np.float64(-0.27)],[1],[0],[0],[1.2230351000034716],['Target'],107,0,107,0,150.3008045000024,,5,150.29183040000498,150.3008045000024,150.3008045000024,0.01355879999755416,151.5150711000024,[np.float64(0.23583333333333334)],[np.float64(-0.27)],[1],[0],[0],[1.2230351000034716],['Target'],151.3101483000064,Participant 3,001,2025-09-30_13h37.11.840,visual search task,,2025.1.1,60.507525017490956,2025-09-30 13h37.29.399804 +0530,
108,0,108,[np.float64(-0.39)],[np.float64(-0.08166666666666667)],[1],[0],[0],[1.1053651999973226],['Target'],108,0,108,0,151.55642540000554,,10,151.54230260000622,151.55642540000554,151.55642540000554,0.027059599990025163,152.64789259999816,[np.float64(-0.39)],[np.float64(-0.08166666666666667)],[1],[0],[0],[1.1053651999973226],['Target'],152.56168559999787,Participant 3,001,2025-09-30_13h37.11.840,visual search task,,2025.1.1,60.507525017490956,2025-09-30 13h37.29.399804 +0530,
109,0,109,[np.float64(0.06333333333333334)],[np.float64(0.0033333333333333335)],[1],[0],[0],[1.8584370000025956],['Target'],109,0,109,0,152.6883666999929,,10,152.67506619999767,152.6883666999929,152.6883666999929,0.02695790000143461,154.5337501000031,[np.float64(0.06333333333333334)],[np.float64(0.0033333333333333335)],[1],[0],[0],[1.8584370000025956],['Target'],153.69641689999844,Participant 3,001,2025-09-30_13h37.11.840,visual search task,,2025.1.1,60.507525017490956,2025-09-30 13h37.29.399804 +0530,
110,0,110,[np.float64(-0.03916666666666667)],[np.float64(-0.3575)],[1],[0],[0],[1.3853030000027502],['Target'],110,0,110,0,154.55941590000293,,5,154.54907740000635,154.55941590000293,154.55941590000293,0.015113899993593805,155.93465349999315,[np.float64(-0.03916666666666667)],[np.float64(-0.3575)],[1],[0],[0],[1.3853030000027502],['Target'],155.56494640000165,Participant 3,001,2025-09-30_13h37.11.840,visual search task,,2025.1.1,60.507525017490956,2025-09-30 13h37.29.399804 +0530,
111,0,111,"[np.float64(-0.38333333333333336), np.float64(-0.37666666666666665), np.float64(-0.375), np.float64(-0.3675)]","[np.float64(0.4166666666666667), np.float64(0.4083333333333333), np.float64(0.4083333333333333), np.float64(0.40166666666666667)]","[1, 1, 1, 1]","[0, 0, 0, 0]","[0, 0, 0, 0]","[1.085839000006672, 1.569685100010247, 2.054388200005633, 2.5877846000075806]","[None, None, None, 'Target']",111,0,111,0,155.96022670000093,,5,155.95022299999255,155.96022670000093,155.96022670000093,0.015372299996670336,158.53823530000227,"[np.float64(-0.38333333333333336), np.float64(-0.37666666666666665), np.float64(-0.375), np.float64(-0.3675)]","[np.float64(0.4166666666666667), np.float64(0.4083333333333333), np.float64(0.4083333333333333), np.float64(0.40166666666666667)]","[1, 1, 1, 1]","[0, 0, 0, 0]","[0, 0, 0, 0]","[1.085839000006672, 1.569685100010247, 2.054388200005633, 2.5877846000075806]","[None, None, None, 'Target']",156.96650739999313,Participant 3,001,2025-09-30_13h37.11.840,visual search task,,2025.1.1,60.507525017490956,2025-09-30 13h37.29.399804 +0530,
112,0,112,[np.float64(0.23166666666666666)],[np.float64(-0.2675)],[1],[0],[0],[1.8579650000028778],['Target'],112,0,112,0,158.57968619999883,,10,158.56521669999347,158.57968619999883,158.57968619999883,0.026779500010889024,160.42343749999418,[np.float64(0.23166666666666666)],[np.float64(-0.2675)],[1],[0],[0],[1.8579650000028778],['Target'],159.58625920000486,Participant 3,001,2025-09-30_13h37.11.840,visual search task,,2025.1.1,60.507525017490956,2025-09-30 13h37.29.399804 +0530,
113,0,113,[np.float64(-0.385)],[np.float64(0.19833333333333333)],[1],[0],[0],[1.2599690000060946],['Target'],113,0,113,0,160.46007950000057,,10,160.4484836000047,160.46007950000057,160.46007950000057,0.02488110000558663,161.7086804999999,[np.float64(-0.385)],[np.float64(0.19833333333333333)],[1],[0],[0],[1.2599690000060946],['Target'],161.4721472999954,Participant 3,001,2025-09-30_13h37.11.840,visual search task,,2025.1.1,60.507525017490956,2025-09-30 13h37.29.399804 +0530,
114,0,114,[np.float64(0.049166666666666664)],[np.float64(-0.15916666666666668)],[1],[0],[0],[0.8898297999985516],['Target'],114,0,114,0,161.74915099999635,,10,161.73551149999548,161.74915099999635,161.74915099999635,0.02658510000037495,162.62556099999347,[np.float64(0.049166666666666664)],[np.float64(-0.15916666666666668)],[1],[0],[0],[0.8898297999985516],['Target'],,Participant 3,001,2025-09-30_13h37.11.840,visual search task,,2025.1.1,60.507525017490956,2025-09-30 13h37.29.399804 +0530,
115,0,115,[np.float64(0.15833333333333333)],[np.float64(-0.15583333333333332)],[1],[0],[0],[0.8031587000004947],['Target'],115,0,115,0,162.6514296999958,,5,162.64073410000128,162.6514296999958,162.6514296999958,0.015002900006948039,163.44409109999833,[np.float64(0.15833333333333333)],[np.float64(-0.15583333333333332)],[1],[0],[0],[0.8031587000004947],['Target'],,Participant 3,001,2025-09-30_13h37.11.840,visual search task,,2025.1.1,60.507525017490956,2025-09-30 13h37.29.399804 +0530,
116,0,116,[np.float64(-0.17416666666666666)],[np.float64(-0.0033333333333333335)],[1],[0],[0],[0.988909199993941],['Target'],116,0,116,0,163.48418410000158,,10,163.47203720000107,163.48418410000158,163.48418410000158,0.027812400003313087,164.46116940000502,[np.float64(-0.17416666666666666)],[np.float64(-0.0033333333333333335)],[1],[0],[0],[0.988909199993941],['Target'],,Participant 3,001,2025-09-30_13h37.11.840,visual search task,,2025.1.1,60.507525017490956,2025-09-30 13h37.29.399804 +0530,
117,0,117,[np.float64(0.495)],[np.float64(-0.24083333333333334)],[1],[0],[0],[1.007818899990525],['Target'],117,0,117,0,164.50241780000215,,10,164.48807819999638,164.50241780000215,164.50241780000215,0.02668910000647884,165.49613580000005,[np.float64(0.495)],[np.float64(-0.24083333333333334)],[1],[0],[0],[1.007818899990525],['Target'],165.52134300000034,Participant 3,001,2025-09-30_13h37.11.840,visual search task,,2025.1.1,60.507525017490956,2025-09-30 13h37.29.399804 +0530,
118,0,118,[np.float64(0.24166666666666667)],[np.float64(-0.41333333333333333)],[1],[0],[0],[1.2195965999999316],['Target'],118,0,118,0,165.52134300000034,,5,165.5112325999944,165.52134300000034,165.52134300000034,0.015036899989354424,166.73128110000107,[np.float64(0.24166666666666667)],[np.float64(-0.41333333333333333)],[1],[0],[0],[1.2195965999999316],['Target'],166.527519700001,Participant 3,001,2025-09-30_13h37.11.840,visual search task,,2025.1.1,60.507525017490956,2025-09-30 13h37.29.399804 +0530,
119,0,119,[np.float64(-0.0008333333333333334)],[np.float64(0.35333333333333333)],[1],[0],[0],[1.304352099992684],['Target'],119,0,119,0,166.75367380000534,,5,166.7443140999967,166.75367380000534,166.75367380000534,0.012899199995445088,168.04887090000557,[np.float64(-0.0008333333333333334)],[np.float64(0.35333333333333333)],[1],[0],[0],[1.304352099992684],['Target'],167.76165949999995,Participant 3,001,2025-09-30_13h37.11.840,visual search task,,2025.1.1,60.507525017490956,2025-09-30 13h37.29.399804 +0530,
120,0,120,[np.float64(0.26416666666666666)],[np.float64(0.10416666666666667)],[1],[0],[0],[0.9843833000049926],['Target'],120,0,120,0,168.0729782999988,,5,168.06329130000086,168.0729782999988,168.0729782999988,0.014296299996203743,169.04802020000352,[np.float64(0.26416666666666666)],[np.float64(0.10416666666666667)],[1],[0],[0],[0.9843833000049926],['Target'],,Participant 3,001,2025-09-30_13h37.11.840,visual search task,,2025.1.1,60.507525017490956,2025-09-30 13h37.29.399804 +0530,
121,0,121,[np.float64(-0.43166666666666664)],[np.float64(-0.11416666666666667)],[1],[0],[0],[1.0217324000113877],['Target'],121,0,121,0,169.07146370000555,,5,169.06212770000275,169.07146370000555,169.07146370000555,0.013908099994296208,170.08405940000375,[np.float64(-0.43166666666666664)],[np.float64(-0.11416666666666667)],[1],[0],[0],[1.0217324000113877],['Target'],170.08120879999478,Participant 3,001,2025-09-30_13h37.11.840,visual search task,,2025.1.1,60.507525017490956,2025-09-30 13h37.29.399804 +0530,
122,0,122,[np.float64(-0.125)],[np.float64(-0.105)],[1],[0],[0],[1.0539862000005087],['Target'],122,0,122,0,170.1086009999999,,5,170.09833290000097,170.1086009999999,170.1086009999999,0.014107299997704104,171.15253979999397,[np.float64(-0.125)],[np.float64(-0.105)],[1],[0],[0],[1.0539862000005087],['Target'],171.11537220000173,Participant 3,001,2025-09-30_13h37.11.840,visual search task,,2025.1.1,60.507525017490956,2025-09-30 13h37.29.399804 +0530,
123,0,123,[np.float64(0.45416666666666666)],[np.float64(0.19)],[1],[0],[0],[1.242729400008102],['Target'],123,0,123,0,171.1895760000043,,10,171.17676659999415,171.1895760000043,171.1895760000043,0.024098800000501797,172.41971600000397,[np.float64(0.45416666666666666)],[np.float64(0.19)],[1],[0],[0],[1.242729400008102],['Target'],172.20007429999532,Participant 3,001,2025-09-30_13h37.11.840,visual search task,,2025.1.1,60.507525017490956,2025-09-30 13h37.29.399804 +0530,
124,0,124,[np.float64(0.4533333333333333)],[np.float64(0.085)],[1],[0],[0],[0.6864020000066375],['Target'],124,0,124,0,172.46292429999448,,10,172.44892890000483,172.46292429999448,172.46292429999448,0.02904179999313783,173.13559580000583,[np.float64(0.4533333333333333)],[np.float64(0.085)],[1],[0],[0],[0.6864020000066375],['Target'],,Participant 3,001,2025-09-30_13h37.11.840,visual search task,,2025.1.1,60.507525017490956,2025-09-30 13h37.29.399804 +0530,
125,0,125,[np.float64(0.015833333333333335)],[np.float64(0.13333333333333333)],[1],[0],[0],[1.7738202000036836],['Target'],125,0,125,0,173.1577299000055,,5,173.14898129999347,173.1577299000055,173.1577299000055,0.013162999995984137,174.9229922999948,[np.float64(0.015833333333333335)],[np.float64(0.13333333333333333)],[1],[0],[0],[1.7738202000036836],['Target'],174.16854309999326,Participant 3,001,2025-09-30_13h37.11.840,visual search task,,2025.1.1,60.507525017490956,2025-09-30 13h37.29.399804 +0530,
126,0,126,[np.float64(-0.4608333333333333)],[np.float64(0.10583333333333333)],[1],[0],[0],[1.0835445999982767],['Target'],126,0,126,0,174.94886340000085,,5,174.93866149999667,174.94886340000085,174.94886340000085,0.015503000002354383,176.02247470000293,[np.float64(-0.4608333333333333)],[np.float64(0.10583333333333333)],[1],[0],[0],[1.0835445999982767],['Target'],175.95428489999904,Participant 3,001,2025-09-30_13h37.11.840,visual search task,,2025.1.1,60.507525017490956,2025-09-30 13h37.29.399804 +0530,
127,0,127,[np.float64(-0.24916666666666668)],[np.float64(0.024166666666666666)],[1],[0],[0],[0.9109173999895575],['Target'],127,0,127,0,176.06122529999993,,10,176.04729919999954,176.06122529999993,176.06122529999993,0.024631899999803863,176.95842070000072,[np.float64(-0.24916666666666668)],[np.float64(0.024166666666666666)],[1],[0],[0],[0.9109173999895575],['Target'],,Participant 3,001,2025-09-30_13h37.11.840,visual search task,,2025.1.1,60.507525017490956,2025-09-30 13h37.29.399804 +0530,
128,0,128,[np.float64(-0.5033333333333333)],[np.float64(-0.44666666666666666)],[1],[0],[0],[0.90193019999424],['Target'],128,0,128,0,176.98251329999766,,5,176.9726742000057,176.98251329999766,176.98251329999766,0.014094300000579096,177.87487600000168,[np.float64(-0.5033333333333333)],[np.float64(-0.44666666666666666)],[1],[0],[0],[0.90193019999424],['Target'],,Participant 3,001,2025-09-30_13h37.11.840,visual search task,,2025.1.1,60.507525017490956,2025-09-30 13h37.29.399804 +0530,
129,0,129,[np.float64(0.4241666666666667)],[np.float64(-0.05)],[1],[0],[0],[1.3204838999954518],['Target'],129,0,129,0,177.89928539999528,,5,177.8895412999991,177.89928539999528,177.89928539999528,0.014480199999525212,179.21024780000153,[np.float64(0.4241666666666667)],[np.float64(-0.05)],[1],[0],[0],[1.3204838999954518],['Target'],178.90746649999346,Participant 3,001,2025-09-30_13h37.11.840,visual search task,,2025.1.1,60.507525017490956,2025-09-30 13h37.29.399804 +0530,
130,0,130,[np.float64(-0.3325)],[np.float64(0.2791666666666667)],[1],[0],[0],[1.290634000004502],['Target'],130,0,130,0,179.2501052000007,,10,179.23784040000464,179.2501052000007,179.2501052000007,0.027468499989481643,180.52875559999666,[np.float64(-0.3325)],[np.float64(0.2791666666666667)],[1],[0],[0],[1.290634000004502],['Target'],180.25893739999447,Participant 3,001,2025-09-30_13h37.11.840,visual search task,,2025.1.1,60.507525017490956,2025-09-30 13h37.29.399804 +0530,
131,0,131,"[np.float64(0.295), np.float64(0.29583333333333334), np.float64(0.29833333333333334), np.float64(0.3025)]","[np.float64(0.475), np.float64(0.47), np.float64(0.4683333333333333), np.float64(0.46166666666666667)]","[1, 1, 1, 1]","[0, 0, 0, 0]","[0, 0, 0, 0]","[1.0861987999960547, 1.5199026000045706, 2.0206878000026336, 2.5375025999965146]","[None, None, None, 'Target']",131,0,131,0,180.55360539999674,,5,180.54333489999408,180.55360539999674,180.55360539999674,0.014420599996810779,183.08106179999595,"[np.float64(0.295), np.float64(0.29583333333333334), np.float64(0.29833333333333334), np.float64(0.3025)]","[np.float64(0.475), np.float64(0.47), np.float64(0.4683333333333333), np.float64(0.46166666666666667)]","[1, 1, 1, 1]","[0, 0, 0, 0]","[0, 0, 0, 0]","[1.0861987999960547, 1.5199026000045706, 2.0206878000026336, 2.5375025999965146]","[None, None, None, 'Target']",181.560304300001,Participant 3,001,2025-09-30_13h37.11.840,visual search task,,2025.1.1,60.507525017490956,2025-09-30 13h37.29.399804 +0530,
132,0,132,"[np.float64(-0.21583333333333332), np.float64(-0.245)]","[np.float64(0.13083333333333333), np.float64(0.12916666666666668)]","[1, 1]","[0, 0]","[0, 0]","[1.008391199997277, 1.5568996999936644]","[None, 'Target']",132,0,132,0,183.12128710000252,,10,183.10914309999498,183.12128710000252,183.12128710000252,0.02787029999308288,184.66628029999265,"[np.float64(-0.21583333333333332), np.float64(-0.245)]","[np.float64(0.13083333333333333), np.float64(0.12916666666666668)]","[1, 1]","[0, 0]","[0, 0]","[1.008391199997277, 1.5568996999936644]","[None, 'Target']",184.1298448000016,Participant 3,001,2025-09-30_13h37.11.840,visual search task,,2025.1.1,60.507525017490956,2025-09-30 13h37.29.399804 +0530,
133,0,133,[np.float64(-0.31333333333333335)],[np.float64(-0.10416666666666667)],[1],[0],[0],[0.9515334000025177],['Target'],133,0,133,0,184.69211540000106,,5,184.6827568000008,184.69211540000106,184.69211540000106,0.01623019999533426,185.63453880000452,[np.float64(-0.31333333333333335)],[np.float64(-0.10416666666666667)],[1],[0],[0],[0.9515334000025177],['Target'],,Participant 3,001,2025-09-30_13h37.11.840,visual search task,,2025.1.1,60.507525017490956,2025-09-30 13h37.29.399804 +0530,
134,0,134,"[np.float64(-0.4658333333333333), np.float64(-0.46)]","[np.float64(-0.17416666666666666), np.float64(-0.17416666666666666)]","[1, 1]","[0, 0]","[0, 0]","[0.994727099998272, 1.4748486000025878]","[None, 'Target']",134,0,134,0,185.67417539999587,,10,185.6603391999961,185.67417539999587,185.67417539999587,0.025621099994168617,187.13538300000073,"[np.float64(-0.4658333333333333), np.float64(-0.46)]","[np.float64(-0.17416666666666666), np.float64(-0.17416666666666666)]","[1, 1]","[0, 0]","[0, 0]","[0.994727099998272, 1.4748486000025878]","[None, 'Target']",186.68299050000496,Participant 3,001,2025-09-30_13h37.11.840,visual search task,,2025.1.1,60.507525017490956,2025-09-30 13h37.29.399804 +0530,
135,0,135,[np.float64(-0.4741666666666667)],[np.float64(0.30083333333333334)],[1],[0],[0],[0.9404162999999244],['Target'],135,0,135,0,187.1779722999927,,10,187.16380480000225,187.1779722999927,187.1779722999927,0.028227900009369478,188.10449599999993,[np.float64(-0.4741666666666667)],[np.float64(0.30083333333333334)],[1],[0],[0],[0.9404162999999244],['Target'],,Participant 3,001,2025-09-30_13h37.11.840,visual search task,,2025.1.1,60.507525017490956,2025-09-30 13h37.29.399804 +0530,
136,0,136,[np.float64(0.05583333333333333)],[np.float64(0.23333333333333334)],[1],[0],[0],[0.941716000001179],['Target'],136,0,136,0,188.14288390000002,,10,188.13054650000413,188.14288390000002,188.14288390000002,0.02577339998970274,189.07246049999958,[np.float64(0.05583333333333333)],[np.float64(0.23333333333333334)],[1],[0],[0],[0.941716000001179],['Target'],,Participant 3,001,2025-09-30_13h37.11.840,visual search task,,2025.1.1,60.507525017490956,2025-09-30 13h37.29.399804 +0530,
137,0,137,"[np.float64(0.1775), np.float64(0.19583333333333333)]","[np.float64(0.26166666666666666), np.float64(0.25583333333333336)]","[1, 1]","[0, 0]","[0, 0]","[0.9213232000038261, 1.5550578999973368]","[None, 'Target']",137,0,137,0,189.11432809999678,,10,189.10096440000052,189.11432809999678,189.11432809999678,0.028342599995085038,190.65624880000541,"[np.float64(0.1775), np.float64(0.19583333333333333)]","[np.float64(0.26166666666666666), np.float64(0.25583333333333336)]","[1, 1]","[0, 0]","[0, 0]","[0.9213232000038261, 1.5550578999973368]","[None, 'Target']",190.1194736000034,Participant 3,001,2025-09-30_13h37.11.840,visual search task,,2025.1.1,60.507525017490956,2025-09-30 13h37.29.399804 +0530,
138,0,138,[np.float64(-0.2833333333333333)],[np.float64(0.25416666666666665)],[1],[0],[0],[1.037857699993765],['Target'],138,0,138,0,190.67971949999628,,5,190.66950930000166,190.67971949999628,190.67971949999628,0.013079299998935312,191.70759190000535,[np.float64(-0.2833333333333333)],[np.float64(0.25416666666666665)],[1],[0],[0],[1.037857699993765],['Target'],191.68818270000338,Participant 3,001,2025-09-30_13h37.11.840,visual search task,,2025.1.1,60.507525017490956,2025-09-30 13h37.29.399804 +0530,
139,0,139,[np.float64(-0.23916666666666667)],[np.float64(-0.21333333333333335)],[1],[0],[0],[1.0237175000074785],['Target'],139,0,139,0,191.74730529999943,,10,191.73485660000006,191.74730529999943,191.74730529999943,0.02711029999773018,192.7587826999952,[np.float64(-0.23916666666666667)],[np.float64(-0.21333333333333335)],[1],[0],[0],[1.0237175000074785],['Target'],192.755854300005,Participant 3,001,2025-09-30_13h37.11.840,visual search task,,2025.1.1,60.507525017490956,2025-09-30 13h37.29.399804 +0530,
140,0,140,[np.float64(-0.39916666666666667)],[np.float64(0.22333333333333333)],[1],[0],[0],[0.9075426000053994],['Target'],140,0,140,0,192.79889599999296,,10,192.78679569999804,192.79889599999296,192.79889599999296,0.027795900008641183,193.694562100005,[np.float64(-0.39916666666666667)],[np.float64(0.22333333333333333)],[1],[0],[0],[0.9075426000053994],['Target'],,Participant 3,001,2025-09-30_13h37.11.840,visual search task,,2025.1.1,60.507525017490956,2025-09-30 13h37.29.399804 +0530,
141,0,141,[np.float64(0.07166666666666667)],[np.float64(-0.245)],[1],[0],[0],[1.2065134000004036],['Target'],141,0,141,0,193.73475619999226,,10,193.7220329999982,193.73475619999226,193.73475619999226,0.02724060000036843,194.9287589000014,[np.float64(0.07166666666666667)],[np.float64(-0.245)],[1],[0],[0],[1.2065134000004036],['Target'],194.74162109999452,Participant 3,001,2025-09-30_13h37.11.840,visual search task,,2025.1.1,60.507525017490956,2025-09-30 13h37.29.399804 +0530,
142,0,142,[np.float64(-0.13916666666666666)],[np.float64(-0.1325)],[1],[0],[0],[0.8362383999919984],['Target'],142,0,142,0,194.95283070000005,,5,194.94320799999696,194.95283070000005,194.95283070000005,0.014216199997463264,195.77968189999228,[np.float64(-0.13916666666666666)],[np.float64(-0.1325)],[1],[0],[0],[0.8362383999919984],['Target'],,Participant 3,001,2025-09-30_13h37.11.840,visual search task,,2025.1.1,60.507525017490956,2025-09-30 13h37.29.399804 +0530,
143,0,143,[np.float64(0.4533333333333333)],[np.float64(0.36083333333333334)],[1],[0],[0],[1.3694572000094922],['Target'],143,0,143,0,195.80503170000156,,5,195.79467940000177,195.80503170000156,195.80503170000156,0.014875900000333786,197.16437349999615,[np.float64(0.4533333333333333)],[np.float64(0.36083333333333334)],[1],[0],[0],[1.3694572000094922],['Target'],196.81042609999713,Participant 3,001,2025-09-30_13h37.11.840,visual search task,,2025.1.1,60.507525017490956,2025-09-30 13h37.29.399804 +0530,
144,0,144,[np.float64(0.3641666666666667)],[np.float64(-0.3491666666666667)],[1],[0],[0],[1.2199433000059798],['Target'],144,0,144,0,197.1892943999992,,5,197.1792287999997,197.1892943999992,197.1892943999992,0.014688999988720752,198.3994265999936,[np.float64(0.3641666666666667)],[np.float64(-0.3491666666666667)],[1],[0],[0],[1.2199433000059798],['Target'],198.19618070000433,Participant 3,001,2025-09-30_13h37.11.840,visual search task,,2025.1.1,60.507525017490956,2025-09-30 13h37.29.399804 +0530,
145,0,145,[np.float64(0.2175)],[np.float64(0.0325)],[1],[0],[0],[1.034547899995232],['Target'],145,0,145,0,198.42508030000317,,5,198.41466500000388,198.42508030000317,198.42508030000317,0.015072800000780262,199.44944009999745,[np.float64(0.2175)],[np.float64(0.0325)],[1],[0],[0],[1.034547899995232],['Target'],199.4299142999953,Participant 3,001,2025-09-30_13h37.11.840,visual search task,,2025.1.1,60.507525017490956,2025-09-30 13h37.29.399804 +0530,
146,0,146,"[np.float64(-0.3016666666666667), np.float64(-0.2925)]","[np.float64(-0.48083333333333333), np.float64(-0.475)]","[1, 1]","[0, 0]","[0, 0]","[1.7584330999961821, 2.2566928999876836]","[None, 'Target']",146,0,146,0,199.49041299999226,,10,199.4761462000024,199.49041299999226,199.49041299999226,0.026572599992505275,201.7330815000023,"[np.float64(-0.3016666666666667), np.float64(-0.2925)]","[np.float64(-0.48083333333333333), np.float64(-0.475)]","[1, 1]","[0, 0]","[0, 0]","[1.7584330999961821, 2.2566928999876836]","[None, 'Target']",200.4978437999962,Participant 3,001,2025-09-30_13h37.11.840,visual search task,,2025.1.1,60.507525017490956,2025-09-30 13h37.29.399804 +0530,
147,0,147,[np.float64(0.0375)],[np.float64(0.27416666666666667)],[1],[0],[0],[1.2085421999945538],['Target'],147,0,147,0,201.75476179999532,,5,201.7470684,201.75476179999532,201.75476179999532,0.013747299992246553,202.95582950000244,[np.float64(0.0375)],[np.float64(0.27416666666666667)],[1],[0],[0],[1.2085421999945538],['Target'],202.76689800000167,Participant 3,001,2025-09-30_13h37.11.840,visual search task,,2025.1.1,60.507525017490956,2025-09-30 13h37.29.399804 +0530,
148,0,148,[np.float64(0.135)],[np.float64(-0.43166666666666664)],[1],[0],[0],[2.370466000007582],['Target'],148,0,148,0,202.9971888,,10,202.98446019999392,202.9971888,202.9971888,0.028464000002713874,205.35521239999798,[np.float64(0.135)],[np.float64(-0.43166666666666664)],[1],[0],[0],[2.370466000007582],['Target'],204.00166159999208,Participant 3,001,2025-09-30_13h37.11.840,visual search task,,2025.1.1,60.507525017490956,2025-09-30 13h37.29.399804 +0530,
149,0,149,[np.float64(0.4841666666666667)],[np.float64(-0.08333333333333333)],[1],[0],[0],[1.1190909999859286],['Target'],149,0,149,0,205.40250579999702,,10,205.39010429999325,205.40250579999702,205.40250579999702,0.03462230000877753,206.50944890000392,[np.float64(0.4841666666666667)],[np.float64(-0.08333333333333333)],[1],[0],[0],[1.1190909999859286],['Target'],206.40431969999918,Participant 3,001,2025-09-30_13h37.11.840,visual search task,,2025.1.1,60.507525017490956,2025-09-30 13h37.29.399804 +0530,
150,0,150,[np.float64(-0.31666666666666665)],[np.float64(-0.049166666666666664)],[1],[0],[0],[1.2847408000088762],['Target'],150,0,150,0,206.53384030000598,,5,206.5244539999985,206.53384030000598,206.53384030000598,0.014745499996934086,207.8094323999976,[np.float64(-0.31666666666666665)],[np.float64(-0.049166666666666664)],[1],[0],[0],[1.2847408000088762],['Target'],207.53871989999607,Participant 3,001,2025-09-30_13h37.11.840,visual search task,,2025.1.1,60.507525017490956,2025-09-30 13h37.29.399804 +0530,
151,0,151,[np.float64(0.19083333333333333)],[np.float64(0.03833333333333333)],[1],[0],[0],[1.1546517999959178],['Target'],151,0,151,0,207.85285500000464,,10,207.83848500000022,207.85285500000464,207.85285500000464,0.028882700004032813,208.993381399996,[np.float64(0.19083333333333333)],[np.float64(0.03833333333333333)],[1],[0],[0],[1.1546517999959178],['Target'],208.85705390000658,Participant 3,001,2025-09-30_13h37.11.840,visual search task,,2025.1.1,60.507525017490956,2025-09-30 13h37.29.399804 +0530,
152,0,152,[np.float64(0.23083333333333333)],[np.float64(0.2)],[1],[0],[0],[1.1198498999874573],['Target'],152,0,152,0,209.01739569999336,,5,209.00790830000187,209.01739569999336,209.01739569999336,0.01430419999815058,210.127968899993,[np.float64(0.23083333333333333)],[np.float64(0.2)],[1],[0],[0],[1.1198498999874573],['Target'],210.02503659999638,Participant 3,001,2025-09-30_13h37.11.840,visual search task,,2025.1.1,60.507525017490956,2025-09-30 13h37.29.399804 +0530,
153,0,153,[np.float64(-0.15416666666666667)],[np.float64(-0.38)],[1],[0],[0],[1.1868012999912025],['Target'],153,0,153,0,210.15237820000038,,5,210.14260459999787,210.15237820000038,210.15237820000038,0.014455500000622123,211.32961899999646,[np.float64(-0.15416666666666667)],[np.float64(-0.38)],[1],[0],[0],[1.1868012999912025],['Target'],211.15955450000183,Participant 3,001,2025-09-30_13h37.11.840,visual search task,,2025.1.1,60.507525017490956,2025-09-30 13h37.29.399804 +0530,
154,0,154,[np.float64(-0.3441666666666667)],[np.float64(-0.10666666666666667)],[1],[0],[0],[1.7026137999928324],['Target'],154,0,154,0,211.3555056000041,,5,211.3451805999939,211.3555056000041,211.3555056000041,0.015397199997096322,213.0480416000064,[np.float64(-0.3441666666666667)],[np.float64(-0.10666666666666667)],[1],[0],[0],[1.7026137999928324],['Target'],212.36261250000098,Participant 3,001,2025-09-30_13h37.11.840,visual search task,,2025.1.1,60.507525017490956,2025-09-30 13h37.29.399804 +0530,
155,0,155,[np.float64(-0.3233333333333333)],[np.float64(0.4225)],[1],[0],[0],[0.970147400003043],['Target'],155,0,155,0,213.073839100005,,5,213.06355180000537,213.073839100005,213.073839100005,0.015345299994805828,214.0339316000027,[np.float64(-0.3233333333333333)],[np.float64(0.4225)],[1],[0],[0],[0.970147400003043],['Target'],,Participant 3,001,2025-09-30_13h37.11.840,visual search task,,2025.1.1,60.507525017490956,2025-09-30 13h37.29.399804 +0530,
156,0,156,"[np.float64(-0.35583333333333333), np.float64(-0.3591666666666667)]","[np.float64(-0.18666666666666668), np.float64(-0.18583333333333332)]","[1, 1]","[0, 0]","[0, 0]","[1.08764300000621, 1.570482399998582]","[None, 'Target']",156,0,156,0,214.07626750000054,,10,214.06312979999348,214.07626750000054,214.07626750000054,0.02903140000125859,215.6338642000046,"[np.float64(-0.35583333333333333), np.float64(-0.3591666666666667)]","[np.float64(-0.18666666666666668), np.float64(-0.18583333333333332)]","[1, 1]","[0, 0]","[0, 0]","[1.08764300000621, 1.570482399998582]","[None, 'Target']",215.0801552000048,Participant 3,001,2025-09-30_13h37.11.840,visual search task,,2025.1.1,60.507525017490956,2025-09-30 13h37.29.399804 +0530,
157,0,157,[np.float64(0.0725)],[np.float64(0.10333333333333333)],[1],[0],[0],[1.0374752999923658],['Target'],157,0,157,0,215.67707649999647,,10,215.66552460000094,215.67707649999647,215.67707649999647,0.03138159999798518,216.70319780000136,[np.float64(0.0725)],[np.float64(0.10333333333333333)],[1],[0],[0],[1.0374752999923658],['Target'],216.68281600000046,Participant 3,001,2025-09-30_13h37.11.840,visual search task,,2025.1.1,60.507525017490956,2025-09-30 13h37.29.399804 +0530,
158,0,158,[np.float64(-0.12666666666666668)],[np.float64(-0.0275)],[1],[0],[0],[1.3261600000114413],['Target'],158,0,158,0,216.7398422999977,,10,216.72707949999312,216.7398422999977,216.7398422999977,0.023711600006208755,218.0534556000057,[np.float64(-0.12666666666666668)],[np.float64(-0.0275)],[1],[0],[0],[1.3261600000114413],['Target'],217.75004729999637,Participant 3,001,2025-09-30_13h37.11.840,visual search task,,2025.1.1,60.507525017490956,2025-09-30 13h37.29.399804 +0530,
159,0,159,"[np.float64(0.125), np.float64(0.14)]","[np.float64(0.315), np.float64(0.30666666666666664)]","[1, 1]","[0, 0]","[0, 0]","[1.184564600000158, 1.7364823999960208]","[None, 'Target']",159,0,159,0,218.07888279999315,,5,218.06903030000103,218.07888279999315,218.07888279999315,0.015170800004852936,219.8057584000053,"[np.float64(0.125), np.float64(0.14)]","[np.float64(0.315), np.float64(0.30666666666666664)]","[1, 1]","[0, 0]","[0, 0]","[1.184564600000158, 1.7364823999960208]","[None, 'Target']",219.08463019999908,Participant 3,001,2025-09-30_13h37.11.840,visual search task,,2025.1.1,60.507525017490956,2025-09-30 13h37.29.399804 +0530,
160,0,160,[np.float64(0.3975)],[np.float64(0.3466666666666667)],[1],[0],[0],[1.1386742999893613],['Target'],160,0,160,0,219.84702980000293,,10,219.83414320000156,219.84702980000293,219.84702980000293,0.028149799996754155,220.97306069999468,[np.float64(0.3975)],[np.float64(0.3466666666666667)],[1],[0],[0],[1.1386742999893613],['Target'],220.85337060000165,Participant 3,001,2025-09-30_13h37.11.840,visual search task,,2025.1.1,60.507525017490956,2025-09-30 13h37.29.399804 +0530,
161,0,161,[np.float64(-0.35833333333333334)],[np.float64(0.15333333333333332)],[1],[0],[0],[1.139490699992166],['Target'],161,0,161,0,221.01235279999673,,10,220.99971760000335,221.01235279999673,221.01235279999673,0.026453700003912672,222.1394425000035,[np.float64(-0.35833333333333334)],[np.float64(0.15333333333333332)],[1],[0],[0],[1.139490699992166],['Target'],222.02161019999767,Participant 3,001,2025-09-30_13h37.11.840,visual search task,,2025.1.1,60.507525017490956,2025-09-30 13h37.29.399804 +0530,
162,0,162,[np.float64(-0.4216666666666667)],[np.float64(-0.3958333333333333)],[1],[0],[0],[1.040849100012565],['Target'],162,0,162,0,222.16002909999224,,5,222.15160149999429,222.16002909999224,222.16002909999224,0.012015300002531148,223.19266939999943,[np.float64(-0.4216666666666667)],[np.float64(-0.3958333333333333)],[1],[0],[0],[1.040849100012565],['Target'],223.17261500000313,Participant 3,001,2025-09-30_13h37.11.840,visual search task,,2025.1.1,60.507525017490956,2025-09-30 13h37.29.399804 +0530,
163,0,163,[np.float64(0.405)],[np.float64(0.205)],[1],[0],[0],[1.103208899992751],['Target'],163,0,163,0,223.21627560000343,,5,223.20696729999327,223.21627560000343,223.21627560000343,0.01415459999407176,224.31040410000423,[np.float64(0.405)],[np.float64(0.205)],[1],[0],[0],[1.103208899992751],['Target'],224.22346720000496,Participant 3,001,2025-09-30_13h37.11.840,visual search task,,2025.1.1,60.507525017490956,2025-09-30 13h37.29.399804 +0530,
164,0,164,"[np.float64(-0.4625), np.float64(-0.4683333333333333)]","[np.float64(-0.24416666666666667), np.float64(-0.24666666666666667)]","[1, 1]","[0, 0]","[0, 0]","[1.0537825000064913, 1.603577600006247]","[None, 'Target']",164,0,164,0,224.33415579999564,,5,224.32456749999255,224.33415579999564,224.33415579999564,0.013953300003777258,225.9283679999935,"[np.float64(-0.4625), np.float64(-0.4683333333333333)]","[np.float64(-0.24416666666666667), np.float64(-0.24666666666666667)]","[1, 1]","[0, 0]","[0, 0]","[1.0537825000064913, 1.603577600006247]","[None, 'Target']",225.3418101999996,Participant 3,001,2025-09-30_13h37.11.840,visual search task,,2025.1.1,60.507525017490956,2025-09-30 13h37.29.399804 +0530,
165,0,165,[np.float64(-0.0575)],[np.float64(0.0475)],[1],[0],[0],[1.0841149000043515],['Target'],165,0,165,0,225.95619139999326,,5,225.9460068000044,225.95619139999326,225.95619139999326,0.01742540000122972,227.03036400000565,[np.float64(-0.0575)],[np.float64(0.0475)],[1],[0],[0],[1.0841149000043515],['Target'],226.95974570000544,Participant 3,001,2025-09-30_13h37.11.840,visual search task,,2025.1.1,60.507525017490956,2025-09-30 13h37.29.399804 +0530,
166,0,166,[np.float64(-0.23083333333333333)],[np.float64(0.36)],[1],[0],[0],[7.424011300012353],['Target'],166,0,166,0,227.05658780000522,,5,227.04693329999282,227.05658780000522,227.05658780000522,0.01639710000017658,234.47115979999944,[np.float64(-0.23083333333333333)],[np.float64(0.36)],[1],[0],[0],[7.424011300012353],['Target'],228.06127299999935,Participant 3,001,2025-09-30_13h37.11.840,visual search task,,2025.1.1,60.507525017490956,2025-09-30 13h37.29.399804 +0530,
167,0,167,[np.float64(0.24666666666666667)],[np.float64(0.0325)],[1],[0],[0],[1.1697019999992335],['Target'],167,0,167,0,234.49671750000562,,5,234.48659669999324,234.49671750000562,234.49671750000562,0.015267800001311116,235.65655509999488,[np.float64(0.24666666666666667)],[np.float64(0.0325)],[1],[0],[0],[1.1697019999992335],['Target'],235.50301479999325,Participant 3,001,2025-09-30_13h37.11.840,visual search task,,2025.1.1,60.507525017490956,2025-09-30 13h37.29.399804 +0530,
168,0,168,"[np.float64(-0.38916666666666666), np.float64(-0.38916666666666666), np.float64(-0.3875)]","[np.float64(-0.3333333333333333), np.float64(-0.3333333333333333), np.float64(-0.36583333333333334)]","[1, 1, 1]","[0, 0, 0]","[0, 0, 0]","[1.3406017000088468, 1.9246359000098892, 2.6910893000022043]","[None, None, 'Target']",168,0,168,0,235.69632639999327,,10,235.68397159999586,235.69632639999327,235.69632639999327,0.027239700008067302,238.37528900000325,"[np.float64(-0.38916666666666666), np.float64(-0.38916666666666666), np.float64(-0.3875)]","[np.float64(-0.3333333333333333), np.float64(-0.3333333333333333), np.float64(-0.36583333333333334)]","[1, 1, 1]","[0, 0, 0]","[0, 0, 0]","[1.3406017000088468, 1.9246359000098892, 2.6910893000022043]","[None, None, 'Target']",236.70456800000102,Participant 3,001,2025-09-30_13h37.11.840,visual search task,,2025.1.1,60.507525017490956,2025-09-30 13h37.29.399804 +0530,
169,0,169,[np.float64(0.2975)],[np.float64(-0.22333333333333333)],[1],[0],[0],[1.2722974000062095],['Target'],169,0,169,0,238.41718570000376,,10,238.40435310000612,238.41718570000376,238.41718570000376,0.02876539999851957,239.67689010000322,[np.float64(0.2975)],[np.float64(-0.22333333333333333)],[1],[0],[0],[1.2722974000062095],['Target'],239.4240021000005,Participant 3,001,2025-09-30_13h37.11.840,visual search task,,2025.1.1,60.507525017490956,2025-09-30 13h37.29.399804 +0530,
170,0,170,[np.float64(-0.3575)],[np.float64(0.26916666666666667)],[1],[0],[0],[1.239868699994986],['Target'],170,0,170,0,239.71920419999515,,10,239.70571209999616,239.71920419999515,239.71920419999515,0.0286777000001166,240.94579729999532,[np.float64(-0.3575)],[np.float64(0.26916666666666667)],[1],[0],[0],[1.239868699994986],['Target'],240.72533499999554,Participant 3,001,2025-09-30_13h37.11.840,visual search task,,2025.1.1,60.507525017490956,2025-09-30 13h37.29.399804 +0530,
171,0,171,"[np.float64(0.26916666666666667), np.float64(0.2625)]","[np.float64(0.17166666666666666), np.float64(0.1775)]","[1, 1]","[0, 0]","[0, 0]","[1.1414035999914631, 1.910753999996814]","[None, 'Target']",171,0,171,0,240.9827026999992,,10,240.97071419999702,240.9827026999992,240.9827026999992,0.02474140000413172,242.88166369999817,"[np.float64(0.26916666666666667), np.float64(0.2625)]","[np.float64(0.17166666666666666), np.float64(0.1775)]","[1, 1]","[0, 0]","[0, 0]","[1.1414035999914631, 1.910753999996814]","[None, 'Target']",241.99342610000167,Participant 3,001,2025-09-30_13h37.11.840,visual search task,,2025.1.1,60.507525017490956,2025-09-30 13h37.29.399804 +0530,
172,0,172,"[np.float64(-0.3408333333333333), np.float64(-0.335), np.float64(-0.32916666666666666)]","[np.float64(0.47333333333333333), np.float64(0.4725), np.float64(0.46166666666666667)]","[1, 1, 1]","[0, 0, 0]","[0, 0, 0]","[1.3688160000019707, 3.1332695000019157, 3.6182111000089208]","[None, None, 'Target']",172,0,172,0,242.90707359999942,,5,242.8984133000049,242.90707359999942,242.90707359999942,0.016545999998925254,246.51687530000345,"[np.float64(-0.3408333333333333), np.float64(-0.335), np.float64(-0.32916666666666666)]","[np.float64(0.47333333333333333), np.float64(0.4725), np.float64(0.46166666666666667)]","[1, 1, 1]","[0, 0, 0]","[0, 0, 0]","[1.3688160000019707, 3.1332695000019157, 3.6182111000089208]","[None, None, 'Target']",243.91254809999373,Participant 3,001,2025-09-30_13h37.11.840,visual search task,,2025.1.1,60.507525017490956,2025-09-30 13h37.29.399804 +0530,
173,0,173,[np.float64(-0.4891666666666667)],[np.float64(0.2925)],[1],[0],[0],[0.8536357999983011],['Target'],173,0,173,0,246.5419710999995,,5,246.53189090000524,246.5419710999995,246.5419710999995,0.014822700002696365,247.38577330000408,[np.float64(-0.4891666666666667)],[np.float64(0.2925)],[1],[0],[0],[0.8536357999983011],['Target'],,Participant 3,001,2025-09-30_13h37.11.840,visual search task,,2025.1.1,60.507525017490956,2025-09-30 13h37.29.399804 +0530,
174,0,174,[np.float64(-0.23)],[np.float64(0.4841666666666667)],[1],[0],[0],[1.1883420999947703],['Target'],174,0,174,0,247.42396200000076,,10,247.41240260000632,247.42396200000076,247.42396200000076,0.02650159999029711,248.60093230000348,[np.float64(-0.23)],[np.float64(0.4841666666666667)],[1],[0],[0],[1.1883420999947703],['Target'],248.43320080000558,Participant 3,001,2025-09-30_13h37.11.840,visual search task,,2025.1.1,60.507525017490956,2025-09-30 13h37.29.399804 +0530,
175,0,175,"[np.float64(0.41083333333333333), np.float64(0.42916666666666664)]","[np.float64(-0.0275), np.float64(-0.030833333333333334)]","[1, 1]","[0, 0]","[0, 0]","[1.3259687999961898, 1.826239700007136]","[None, 'Target']",175,0,175,0,248.62124269999913,,5,248.61265619999904,248.62124269999913,248.62124269999913,0.01156990000163205,250.43911029999435,"[np.float64(0.41083333333333333), np.float64(0.42916666666666664)]","[np.float64(-0.0275), np.float64(-0.030833333333333334)]","[1, 1]","[0, 0]","[0, 0]","[1.3259687999961898, 1.826239700007136]","[None, 'Target']",249.63491839999915,Participant 3,001,2025-09-30_13h37.11.840,visual search task,,2025.1.1,60.507525017490956,2025-09-30 13h37.29.399804 +0530,
176,0,176,"[np.float64(-0.205), np.float64(-0.19083333333333333)]","[np.float64(-0.2525), np.float64(-0.2525)]","[1, 1]","[0, 0]","[0, 0]","[0.9420047000021441, 1.4419753000111086]","[None, 'Target']",176,0,176,0,250.4771400000027,,10,250.4647263999941,250.4771400000027,250.4771400000027,0.02541009998822119,251.90693539999484,"[np.float64(-0.205), np.float64(-0.19083333333333333)]","[np.float64(-0.2525), np.float64(-0.2525)]","[1, 1]","[0, 0]","[0, 0]","[0.9420047000021441, 1.4419753000111086]","[None, 'Target']",251.48699730000226,Participant 3,001,2025-09-30_13h37.11.840,visual search task,,2025.1.1,60.507525017490956,2025-09-30 13h37.29.399804 +0530,
177,0,177,[np.float64(-0.4266666666666667)],[np.float64(-0.46166666666666667)],[1],[0],[0],[1.168325399994501],['Target'],177,0,177,0,251.93229569999676,,5,251.92311750000226,251.93229569999676,251.93229569999676,0.0159171000123024,253.0916717999935,[np.float64(-0.4266666666666667)],[np.float64(-0.46166666666666667)],[1],[0],[0],[1.168325399994501],['Target'],252.9385939000058,Participant 3,001,2025-09-30_13h37.11.840,visual search task,,2025.1.1,60.507525017490956,2025-09-30 13h37.29.399804 +0530,
178,0,178,"[np.float64(-0.10083333333333333), np.float64(-0.11583333333333333)]","[np.float64(-0.2683333333333333), np.float64(-0.2525)]","[1, 1]","[0, 0]","[0, 0]","[0.9206554999982473, 1.43688559999282]","[None, 'Target']",178,0,178,0,253.1160349999991,,5,253.1059557999979,253.1160349999991,253.1160349999991,0.014159500002278946,254.54310530000657,"[np.float64(-0.10083333333333333), np.float64(-0.11583333333333333)]","[np.float64(-0.2683333333333333), np.float64(-0.2525)]","[1, 1]","[0, 0]","[0, 0]","[0.9206554999982473, 1.43688559999282]","[None, 'Target']",254.1233865999966,Participant 3,001,2025-09-30_13h37.11.840,visual search task,,2025.1.1,60.507525017490956,2025-09-30 13h37.29.399804 +0530,
179,0,179,[np.float64(-0.19583333333333333)],[np.float64(-0.17083333333333334)],[1],[0],[0],[0.8745669000054477],['Target'],179,0,179,0,254.58417620000546,,10,254.5699595000042,254.58417620000546,254.58417620000546,0.026640099997166544,255.44477950000146,[np.float64(-0.19583333333333333)],[np.float64(-0.17083333333333334)],[1],[0],[0],[0.8745669000054477],['Target'],,Participant 3,001,2025-09-30_13h37.11.840,visual search task,,2025.1.1,60.507525017490956,2025-09-30 13h37.29.399804 +0530,
180,0,180,[np.float64(0.23666666666666666)],[np.float64(-0.42916666666666664)],[1],[0],[0],[1.18458400000236],['Target'],180,0,180,0,255.47105269999884,,5,255.46148379999795,255.47105269999884,255.47105269999884,0.016524299993761815,256.64631969999755,[np.float64(0.23666666666666666)],[np.float64(-0.42916666666666664)],[1],[0],[0],[1.18458400000236],['Target'],256.4759830999974,Participant 3,001,2025-09-30_13h37.11.840,visual search task,,2025.1.1,60.507525017490956,2025-09-30 13h37.29.399804 +0530,
181,0,181,[np.float64(0.4116666666666667)],[np.float64(-0.42833333333333334)],[1],[0],[0],[0.9065777999931015],['Target'],181,0,181,0,256.6873845999944,,10,256.6743870000064,256.6873845999944,256.6873845999944,0.0278896999952849,257.58121829999436,[np.float64(0.4116666666666667)],[np.float64(-0.42833333333333334)],[1],[0],[0],[0.9065777999931015],['Target'],,Participant 3,001,2025-09-30_13h37.11.840,visual search task,,2025.1.1,60.507525017490956,2025-09-30 13h37.29.399804 +0530,
