pos,corr_resp,thisN,thisTrialN,thisRepN,key_resp.keys,key_resp.corr,key_resp.rt,key_resp.duration,trials.thisRepN,trials.thisTrialN,trials.thisN,trials.thisIndex,trials_2.thisRepN,trials_2.thisTrialN,trials_2.thisN,trials_2.thisIndex,thisRow.t,notes,trial.started,fixation.started,line1.started,line2.started,line3.started,line4.started,fixation.stopped,probe.started,key_resp.started,trial.stopped,trials.key_resp.keys,trials.key_resp.corr,trials.key_resp.rt,trials.key_resp.duration,trials_2.key_resp.keys,trials_2.key_resp.corr,trials_2.key_resp.rt,trials_2.key_resp.duration,participant,session,date,expName,expVersion,psychopyVersion,frameRate,expStart,
-50,x,0,0,0,x,1,1.476412900025025,None,0,0,0,0,,,,,0.01705299998866394,,0.012345399998594075,0.01705299998866394,1.0142584000132047,1.0142584000132047,1.0142584000132047,1.0142584000132047,1.029866700002458,2.015140099974815,2.015140099974815,3.505176800012123,x,1,1.476412900025025,None,,,,,Participant 01,001,2025-10-05_00h04.10.706,Motor sequence task,,2025.1.1,59.89236145112884,2025-10-05 00h04.24.179339 +0530,
150,v,1,1,0,v,1,0.6897659999667667,None,0,1,1,1,,,,,3.5163780999719165,,3.505526299995836,3.5163780999719165,4.517555499973241,4.517555499973241,4.517555499973241,4.517555499973241,4.517555499973241,5.518312399974093,5.518312399974093,6.219651499995962,v,1,0.6897659999667667,None,,,,,Participant 01,001,2025-10-05_00h04.10.706,Motor sequence task,,2025.1.1,59.89236145112884,2025-10-05 00h04.24.179339 +0530,
50,c,2,2,0,c,1,0.2961043000104837,None,0,2,2,2,,,,,6.235882800014224,,6.22003989998484,6.235882800014224,7.220286299998406,7.220286299998406,7.220286299998406,7.220286299998406,7.237694200011902,8.22200279997196,8.22200279997196,8.522091999999247,c,1,0.2961043000104837,None,,,,,Participant 01,001,2025-10-05_00h04.10.706,Motor sequence task,,2025.1.1,59.89236145112884,2025-10-05 00h04.24.179339 +0530,
-150,z,3,3,0,z,1,0.36283140000887215,None,0,3,3,3,,,,,8.538899299979676,,8.522394599975087,8.538899299979676,9.522816799988504,9.522816799988504,9.522816799988504,9.522816799988504,9.539581699995324,10.52377470000647,10.52377470000647,10.89116619998822,z,1,0.36283140000887215,None,,,,,Participant 01,001,2025-10-05_00h04.10.706,Motor sequence task,,2025.1.1,59.89236145112884,2025-10-05 00h04.24.179339 +0530,
-50,x,4,0,1,x,1,0.3787302999990061,None,1,0,4,0,,,,,10.907634800008964,,10.89152780000586,10.907634800008964,11.89286700001685,11.89286700001685,11.89286700001685,11.89286700001685,11.909691600012593,12.89379399997415,12.89379399997415,13.277109600021504,x,1,0.3787302999990061,None,,,,,Participant 01,001,2025-10-05_00h04.10.706,Motor sequence task,,2025.1.1,59.89236145112884,2025-10-05 00h04.24.179339 +0530,
150,v,5,1,1,v,1,0.3528886000276543,None,1,1,5,1,,,,,13.29450600000564,,13.277468000014778,13.29450600000564,14.278855799988378,14.278855799988378,14.278855799988378,14.278855799988378,14.295446300006006,15.279391199990641,15.279391199990641,15.647571099980269,v,1,0.3528886000276543,None,,,,,Participant 01,001,2025-10-05_00h04.10.706,Motor sequence task,,2025.1.1,59.89236145112884,2025-10-05 00h04.24.179339 +0530,
50,c,6,2,1,c,1,0.2703823000192642,None,1,2,6,2,,,,,15.66355639998801,,15.648102800012566,15.66355639998801,16.647469100018498,16.647469100018498,16.647469100018498,16.647469100018498,16.6643559000222,17.64849300001515,17.64849300001515,17.93321950000245,c,1,0.2703823000192642,None,,,,,Participant 01,001,2025-10-05_00h04.10.706,Motor sequence task,,2025.1.1,59.89236145112884,2025-10-05 00h04.24.179339 +0530,
-150,z,7,3,1,z,1,0.5355135999852791,None,1,3,7,3,,,,,17.948602200020105,,17.933598599978723,17.948602200020105,18.93386869999813,18.93386869999813,18.93386869999813,18.93386869999813,18.950539899989963,19.93463829997927,19.93463829997927,20.48627170000691,z,1,0.5355135999852791,None,,,,,Participant 01,001,2025-10-05_00h04.10.706,Motor sequence task,,2025.1.1,59.89236145112884,2025-10-05 00h04.24.179339 +0530,
-50,x,8,0,2,x,1,0.34931080002570525,None,2,0,8,0,,,,,20.501630400016438,,20.48658590001287,20.501630400016438,21.486254599993117,21.486254599993117,21.486254599993117,21.486254599993117,21.503099000023212,22.487221799965482,22.487221799965482,22.837985399994068,x,1,0.34931080002570525,None,,,,,Participant 01,001,2025-10-05_00h04.10.706,Motor sequence task,,2025.1.1,59.89236145112884,2025-10-05 00h04.24.179339 +0530,
150,v,9,1,2,v,1,0.48186110000824556,None,2,1,9,1,,,,,22.854406800004654,,22.83829300000798,22.854406800004654,23.838564399979077,23.838564399979077,23.838564399979077,23.838564399979077,23.856608900008723,24.840335900022183,24.840335900022183,25.324969300010707,v,1,0.48186110000824556,None,,,,,Participant 01,001,2025-10-05_00h04.10.706,Motor sequence task,,2025.1.1,59.89236145112884,2025-10-05 00h04.24.179339 +0530,
50,c,10,2,2,c,1,0.7022684999974445,None,2,2,10,2,,,,,25.340941499976907,,25.325346599973273,25.340941499976907,26.325204299995676,26.325204299995676,26.325204299995676,26.325204299995676,26.341758199967444,27.32570250000572,27.32570250000572,28.04389249999076,c,1,0.7022684999974445,None,,,,,Participant 01,001,2025-10-05_00h04.10.706,Motor sequence task,,2025.1.1,59.89236145112884,2025-10-05 00h04.24.179339 +0530,
-150,z,11,3,2,z,1,0.5777200000011362,None,2,3,11,3,,,,,28.060328799998388,,28.044287099968642,28.060328799998388,29.044369000010192,29.044369000010192,29.044369000010192,29.044369000010192,29.06124239997007,30.0456951999804,30.0456951999804,30.63017730001593,z,1,0.5777200000011362,None,,,,,Participant 01,001,2025-10-05_00h04.10.706,Motor sequence task,,2025.1.1,59.89236145112884,2025-10-05 00h04.24.179339 +0530,
-50,x,12,0,3,x,1,0.34561360004590824,None,3,0,12,0,,,,,30.646581000008155,,30.63055479998002,30.646581000008155,31.630412099999376,31.630412099999376,31.630412099999376,31.630412099999376,31.64717239997117,32.631332999968436,32.631332999968436,32.982254899980035,x,1,0.34561360004590824,None,,,,,Participant 01,001,2025-10-05_00h04.10.706,Motor sequence task,,2025.1.1,59.89236145112884,2025-10-05 00h04.24.179339 +0530,
150,v,13,1,3,v,1,0.49440229998435825,None,3,1,13,1,,,,,32.99857759999577,,32.98258790001273,32.99857759999577,33.98384860000806,33.98384860000806,33.98384860000806,33.98384860000806,33.99962289998075,34.984829299966805,34.984829299966805,35.48594709997997,v,1,0.49440229998435825,None,,,,,Participant 01,001,2025-10-05_00h04.10.706,Motor sequence task,,2025.1.1,59.89236145112884,2025-10-05 00h04.24.179339 +0530,
50,c,14,2,3,c,1,0.28068819997133687,None,3,2,14,2,,,,,35.50213029998122,,35.48626919998787,35.50213029998122,36.486124099988956,36.486124099988956,36.486124099988956,36.486124099988956,36.502878799976315,37.4872403999907,37.4872403999907,37.77200230001472,c,1,0.28068819997133687,None,,,,,Participant 01,001,2025-10-05_00h04.10.706,Motor sequence task,,2025.1.1,59.89236145112884,2025-10-05 00h04.24.179339 +0530,
-150,z,15,3,3,z,1,0.2895954999839887,None,3,3,15,3,,,,,37.787256599985994,,37.7725021999795,37.787256599985994,38.77230429998599,38.77230429998599,38.77230429998599,38.77230429998599,38.78916260000551,39.77308800001629,39.77308800001629,40.07350709999446,z,1,0.2895954999839887,None,,,,,Participant 01,001,2025-10-05_00h04.10.706,Motor sequence task,,2025.1.1,59.89236145112884,2025-10-05 00h04.24.179339 +0530,
-50,x,16,0,4,x,1,0.2956978000001982,None,4,0,16,0,,,,,40.09012599999551,,40.07387949997792,40.09012599999551,41.07402689999435,41.07402689999435,41.07402689999435,41.07402689999435,41.090840599965304,42.075010999978986,42.075010999978986,42.376578099967446,x,1,0.2956978000001982,None,,,,,Participant 01,001,2025-10-05_00h04.10.706,Motor sequence task,,2025.1.1,59.89236145112884,2025-10-05 00h04.24.179339 +0530,
150,v,17,1,4,v,1,0.5072578000253998,None,4,1,17,1,,,,,42.39292579999892,,42.37696909997612,42.39292579999892,43.377449200022966,43.377449200022966,43.377449200022966,43.377449200022966,43.39316809998127,44.37791500001913,44.37791500001913,44.89567330002319,v,1,0.5072578000253998,None,,,,,Participant 01,001,2025-10-05_00h04.10.706,Motor sequence task,,2025.1.1,59.89236145112884,2025-10-05 00h04.24.179339 +0530,
50,c,18,2,4,c,1,0.31858940003439784,None,4,2,18,2,,,,,44.91160880000098,,44.896195199980866,44.91160880000098,45.8959615000058,45.8959615000058,45.8959615000058,45.8959615000058,45.91281599999638,46.89803899999242,46.89803899999242,47.23202739999397,c,1,0.31858940003439784,None,,,,,Participant 01,001,2025-10-05_00h04.10.706,Motor sequence task,,2025.1.1,59.89236145112884,2025-10-05 00h04.24.179339 +0530,
-150,z,19,3,4,z,1,0.5306320000090636,None,4,3,19,3,,,,,47.248329299967736,,47.23242010001559,47.248329299967736,48.23244340001838,48.23244340001838,48.23244340001838,48.23244340001838,48.249288099992555,49.23336710000876,49.23336710000876,49.76792989997193,z,1,0.5306320000090636,None,,,,,Participant 01,001,2025-10-05_00h04.10.706,Motor sequence task,,2025.1.1,59.89236145112884,2025-10-05 00h04.24.179339 +0530,
-50,x,20,0,5,x,1,0.32328499999130145,None,5,0,20,0,,,,,49.78399219998391,,49.76823410001816,49.78399219998391,50.76804409996839,50.76804409996839,50.76804409996839,50.76804409996839,50.7848705999786,51.76914069999475,51.76914069999475,52.10310870001558,x,1,0.32328499999130145,None,,,,,Participant 01,001,2025-10-05_00h04.10.706,Motor sequence task,,2025.1.1,59.89236145112884,2025-10-05 00h04.24.179339 +0530,
150,v,21,1,5,v,1,0.29766209999797866,None,5,1,21,1,,,,,52.11938869999722,,52.10347129998263,52.11938869999722,53.104773800005205,53.104773800005205,53.104773800005205,53.104773800005205,53.12062220001826,54.105629300000146,54.105629300000146,54.406274700013455,v,1,0.29766209999797866,None,,,,,Participant 01,001,2025-10-05_00h04.10.706,Motor sequence task,,2025.1.1,59.89236145112884,2025-10-05 00h04.24.179339 +0530,
50,c,22,2,5,c,1,0.38894879998406395,None,5,2,22,2,,,,,54.42236229998525,,54.4066870000097,54.42236229998525,55.406424599990714,55.406424599990714,55.406424599990714,55.406424599990714,55.42362389998743,56.40850889997091,56.40850889997091,56.80849319999106,c,1,0.38894879998406395,None,,,,,Participant 01,001,2025-10-05_00h04.10.706,Motor sequence task,,2025.1.1,59.89236145112884,2025-10-05 00h04.24.179339 +0530,
-150,z,23,3,5,z,1,0.339739799965173,None,5,3,23,3,,,,,56.82492470002035,,56.80885269999271,56.82492470002035,57.80913900001906,57.80913900001906,57.80913900001906,57.80913900001906,57.8259071999928,58.81019089999609,58.81019089999609,59.16096359997755,z,1,0.339739799965173,None,,,,,Participant 01,001,2025-10-05_00h04.10.706,Motor sequence task,,2025.1.1,59.89236145112884,2025-10-05 00h04.24.179339 +0530,
-50,x,24,0,6,x,1,0.40336220001336187,None,6,0,24,0,,,,,59.17723610001849,,59.16128000000026,59.17723610001849,60.16235240001697,60.16235240001697,60.16235240001697,60.16235240001697,60.179178899968974,61.16332890000194,61.16332890000194,61.580292999977246,x,1,0.40336220001336187,None,,,,,Participant 01,001,2025-10-05_00h04.10.706,Motor sequence task,,2025.1.1,59.89236145112884,2025-10-05 00h04.24.179339 +0530,
150,v,25,1,6,c,0,0.9209846000303514,None,6,1,25,1,,,,,61.59652319998713,,61.58073410001816,61.59652319998713,62.58167529996717,62.58167529996717,62.58167529996717,62.58167529996717,62.59873610001523,63.58256289997371,63.58256289997371,64.51701599999797,c,0,0.9209846000303514,None,,,,,Participant 01,001,2025-10-05_00h04.10.706,Motor sequence task,,2025.1.1,59.89236145112884,2025-10-05 00h04.24.179339 +0530,
50,c,26,2,6,c,1,1.250209400022868,None,6,2,26,2,,,,,64.53344299999299,,64.51734229997965,64.53344299999299,65.5183243000065,65.5183243000065,65.5183243000065,65.5183243000065,65.53527910000412,66.51934170001186,66.51934170001186,67.77141410001786,c,1,1.250209400022868,None,,,,,Participant 01,001,2025-10-05_00h04.10.706,Motor sequence task,,2025.1.1,59.89236145112884,2025-10-05 00h04.24.179339 +0530,
-150,z,27,3,6,z,1,0.4453106999862939,None,6,3,27,3,,,,,67.7868821999873,,67.7717999999877,67.7868821999873,68.77172169997357,68.77172169997357,68.77172169997357,68.77172169997357,68.78853690001415,69.77217559999553,69.77217559999553,70.22324409999419,z,1,0.4453106999862939,None,,,,,Participant 01,001,2025-10-05_00h04.10.706,Motor sequence task,,2025.1.1,59.89236145112884,2025-10-05 00h04.24.179339 +0530,
-50,x,28,0,7,x,1,0.4427096000290476,None,7,0,28,0,,,,,70.23946780001279,,70.22356439998839,70.23946780001279,71.22448540001642,71.22448540001642,71.22448540001642,71.22448540001642,71.24144239997258,72.22581299999729,72.22581299999729,72.67591280001216,x,1,0.4427096000290476,None,,,,,Participant 01,001,2025-10-05_00h04.10.706,Motor sequence task,,2025.1.1,59.89236145112884,2025-10-05 00h04.24.179339 +0530,
150,v,29,1,7,v,1,0.320086799969431,None,7,1,29,1,,,,,72.69225219998043,,72.67623320000712,72.69225219998043,73.6767142000026,73.6767142000026,73.6767142000026,73.6767142000026,73.69372199999634,74.67863470001612,74.67863470001612,75.01259930001106,v,1,0.320086799969431,None,,,,,Participant 01,001,2025-10-05_00h04.10.706,Motor sequence task,,2025.1.1,59.89236145112884,2025-10-05 00h04.24.179339 +0530,
50,c,30,2,7,c,1,0.32135269994614646,None,7,2,30,2,,,,,75.02810799999861,,75.01296909997473,75.02810799999861,76.01289020001423,76.01289020001423,76.01289020001423,76.01289020001423,76.02945719996933,77.01352989999577,77.01352989999577,77.34795059997123,c,1,0.32135269994614646,None,,,,,Participant 01,001,2025-10-05_00h04.10.706,Motor sequence task,,2025.1.1,59.89236145112884,2025-10-05 00h04.24.179339 +0530,
-150,z,31,3,7,z,1,0.2960871999966912,None,7,3,31,3,,,,,77.36435849999543,,77.3483705999679,77.36435849999543,78.3485980000114,78.3485980000114,78.3485980000114,78.3485980000114,78.36546729999827,79.35017769999104,79.35017769999104,79.65153540001484,z,1,0.2960871999966912,None,,,,,Participant 01,001,2025-10-05_00h04.10.706,Motor sequence task,,2025.1.1,59.89236145112884,2025-10-05 00h04.24.179339 +0530,
-50,x,32,0,8,x,1,0.3672595000243746,None,8,0,32,0,,,,,79.66678359999787,,79.65191999997478,79.66678359999787,80.65149869996822,80.65149869996822,80.65149869996822,80.65149869996822,80.66821959998924,81.65219049999723,81.65219049999723,82.03680309996707,x,1,0.3672595000243746,None,,,,,Participant 01,001,2025-10-05_00h04.10.706,Motor sequence task,,2025.1.1,59.89236145112884,2025-10-05 00h04.24.179339 +0530,
150,v,33,1,8,v,1,0.316071400011424,None,8,1,33,1,,,,,82.0558985999669,,82.03714289999334,82.0558985999669,83.03704159997869,83.03704159997869,83.03704159997869,83.03704159997869,83.07070470001781,84.03799909999361,84.03799909999361,84.35651369998232,v,1,0.316071400011424,None,,,,,Participant 01,001,2025-10-05_00h04.10.706,Motor sequence task,,2025.1.1,59.89236145112884,2025-10-05 00h04.24.179339 +0530,
50,c,34,2,8,c,1,0.2965499000274576,None,8,2,34,2,,,,,84.37177749996772,,84.35690249997424,84.37177749996772,85.35681710002245,85.35681710002245,85.35681710002245,85.35681710002245,85.37252129998524,86.35766759997932,86.35766759997932,86.65810880000936,c,1,0.2965499000274576,None,,,,,Participant 01,001,2025-10-05_00h04.10.706,Motor sequence task,,2025.1.1,59.89236145112884,2025-10-05 00h04.24.179339 +0530,
-150,z,35,3,8,z,1,0.30201470002066344,None,8,3,35,3,,,,,86.674388799991,,86.65863550000358,86.674388799991,87.65972759999568,87.65972759999568,87.65972759999568,87.65972759999568,87.67543529998511,88.65962300001411,88.65962300001411,88.97765790001722,z,1,0.30201470002066344,None,,,,,Participant 01,001,2025-10-05_00h04.10.706,Motor sequence task,,2025.1.1,59.89236145112884,2025-10-05 00h04.24.179339 +0530,
-50,x,36,0,9,x,1,0.31016599998110905,None,9,0,36,0,,,,,88.99422839999897,,88.97803300002124,88.99422839999897,89.97823070001323,89.97823070001323,89.97823070001323,89.97823070001323,89.99501800001599,90.9791477000108,90.9791477000108,91.29639649996534,x,1,0.31016599998110905,None,,,,,Participant 01,001,2025-10-05_00h04.10.706,Motor sequence task,,2025.1.1,59.89236145112884,2025-10-05 00h04.24.179339 +0530,
150,v,37,1,9,v,1,0.30937659996561706,None,9,1,37,1,,,,,91.31288949999725,,91.29684189998079,91.31288949999725,92.29691889998503,92.29691889998503,92.29691889998503,92.29691889998503,92.31364429998212,93.29893980000634,93.29893980000634,93.61626340000657,v,1,0.30937659996561706,None,,,,,Participant 01,001,2025-10-05_00h04.10.706,Motor sequence task,,2025.1.1,59.89236145112884,2025-10-05 00h04.24.179339 +0530,
50,c,38,2,9,c,1,0.3730531000182964,None,9,2,38,2,,,,,93.63256150000961,,93.61665290000383,93.63256150000961,94.61685900000157,94.61685900000157,94.61685900000157,94.61685900000157,94.63285709999036,95.6173698999919,95.6173698999919,96.00190219999058,c,1,0.3730531000182964,None,,,,,Participant 01,001,2025-10-05_00h04.10.706,Motor sequence task,,2025.1.1,59.89236145112884,2025-10-05 00h04.24.179339 +0530,
-150,z,39,3,9,z,1,0.2695263000205159,None,9,3,39,3,,,,,96.01839709997876,,96.00226759997895,96.01839709997876,97.00235359999351,97.00235359999351,97.00235359999351,97.00235359999351,97.0189785999828,98.00320649996866,98.00320649996866,98.288321,z,1,0.2695263000205159,None,,,,,Participant 01,001,2025-10-05_00h04.10.706,Motor sequence task,,2025.1.1,59.89236145112884,2025-10-05 00h04.24.179339 +0530,
-50,x,40,0,10,x,1,0.30124699999578297,None,10,0,40,0,,,,,98.30443209997611,,98.28863839997211,98.30443209997611,99.28859070001636,99.28859070001636,99.28859070001636,99.28859070001636,99.30525969999144,100.28923829999985,100.28923829999985,100.6067488999688,x,1,0.30124699999578297,None,,,,,Participant 01,001,2025-10-05_00h04.10.706,Motor sequence task,,2025.1.1,59.89236145112884,2025-10-05 00h04.24.179339 +0530,
150,v,41,1,10,v,1,0.3693595999502577,None,10,1,41,1,,,,,100.62295200000517,,100.60713459999533,100.62295200000517,101.6071052000043,101.6071052000043,101.6071052000043,101.6071052000043,101.62397429998964,102.60931709996657,102.60931709996657,102.99248459999217,v,1,0.3693595999502577,None,,,,,Participant 01,001,2025-10-05_00h04.10.706,Motor sequence task,,2025.1.1,59.89236145112884,2025-10-05 00h04.24.179339 +0530,
50,c,42,2,10,c,1,0.357415700040292,None,10,2,42,2,,,,,103.00883050000994,,102.99284580000676,103.00883050000994,103.99410840001656,103.99410840001656,103.99410840001656,103.99410840001656,104.00986310001463,104.99475589999929,104.99475589999929,105.36266879999312,c,1,0.357415700040292,None,,,,,Participant 01,001,2025-10-05_00h04.10.706,Motor sequence task,,2025.1.1,59.89236145112884,2025-10-05 00h04.24.179339 +0530,
-150,z,43,3,10,z,1,0.33799259999068454,None,10,3,43,3,,,,,105.37774480000371,,105.36314239999047,105.37774480000371,106.36302380001871,106.36302380001871,106.36302380001871,106.36302380001871,106.37983910000185,107.36388119996991,107.36388119996991,107.71466930001043,z,1,0.33799259999068454,None,,,,,Participant 01,001,2025-10-05_00h04.10.706,Motor sequence task,,2025.1.1,59.89236145112884,2025-10-05 00h04.24.179339 +0530,
-50,x,44,0,11,x,1,0.28633220004849136,None,11,0,44,0,,,,,107.73103630001424,,107.71517079998739,107.73103630001424,108.71539279998979,108.71539279998979,108.71539279998979,108.71539279998979,108.73187909997068,109.71614500001306,109.71614500001306,110.0177670000121,x,1,0.28633220004849136,None,,,,,Participant 01,001,2025-10-05_00h04.10.706,Motor sequence task,,2025.1.1,59.89236145112884,2025-10-05 00h04.24.179339 +0530,
150,v,45,1,11,v,1,0.310708099976182,None,11,1,45,1,,,,,110.03386309999041,,110.01818129996536,110.03386309999041,111.01798459998099,111.01798459998099,111.01798459998099,111.01798459998099,111.03489949996583,112.0186256999732,112.0186256999732,112.33665820001625,v,1,0.310708099976182,None,,,,,Participant 01,001,2025-10-05_00h04.10.706,Motor sequence task,,2025.1.1,59.89236145112884,2025-10-05 00h04.24.179339 +0530,
50,c,46,2,11,c,1,0.37688499997602776,None,11,2,46,2,,,,,112.35243670002092,,112.33703920000698,112.35243670002092,113.33682229998522,113.33682229998522,113.33682229998522,113.33682229998522,113.35356560000218,114.33830250002211,114.33830250002211,114.72217259998433,c,1,0.37688499997602776,None,,,,,Participant 01,001,2025-10-05_00h04.10.706,Motor sequence task,,2025.1.1,59.89236145112884,2025-10-05 00h04.24.179339 +0530,
-150,z,47,3,11,z,1,0.45080039999447763,None,11,3,47,3,,,,,114.73855229996843,,114.72258140001213,114.73855229996843,115.7235667000059,115.7235667000059,115.7235667000059,115.7235667000059,115.73934839997673,116.7242204999784,116.7242204999784,117.19179140002234,z,1,0.45080039999447763,None,,,,,Participant 01,001,2025-10-05_00h04.10.706,Motor sequence task,,2025.1.1,59.89236145112884,2025-10-05 00h04.24.179339 +0530,
-50,x,48,0,12,x,1,0.9588656999985687,None,12,0,48,0,,,,,117.20791940001072,,117.19228479999583,117.20791940001072,118.19222099997569,118.19222099997569,118.19222099997569,118.19222099997569,118.20886389998486,119.19321200001286,119.19321200001286,120.16181329998653,x,1,0.9588656999985687,None,,,,,Participant 01,001,2025-10-05_00h04.10.706,Motor sequence task,,2025.1.1,59.89236145112884,2025-10-05 00h04.24.179339 +0530,
150,v,49,1,12,v,1,0.4291483000270091,None,12,1,49,1,,,,,120.1782733,,120.16218270000536,120.1782733,121.16214470000705,121.16214470000705,121.16214470000705,121.16214470000705,121.17883960000472,122.16327800002182,122.16327800002182,122.59798670001328,v,1,0.4291483000270091,None,,,,,Participant 01,001,2025-10-05_00h04.10.706,Motor sequence task,,2025.1.1,59.89236145112884,2025-10-05 00h04.24.179339 +0530,
50,c,50,2,12,c,1,0.4345461999764666,None,12,2,50,2,,,,,122.6147784999921,,122.59836299996823,122.6147784999921,123.59853770001791,123.59853770001791,123.59853770001791,123.59853770001791,123.61502929998096,124.59930970001733,124.59930970001733,125.05109439999796,c,1,0.4345461999764666,None,,,,,Participant 01,001,2025-10-05_00h04.10.706,Motor sequence task,,2025.1.1,59.89236145112884,2025-10-05 00h04.24.179339 +0530,
-150,z,51,3,12,z,1,0.6137124000233598,None,12,3,51,3,,,,,125.06620970001677,,125.05146669998066,125.06620970001677,126.05156270001316,126.05156270001316,126.05156270001316,126.05156270001316,126.06818409997504,127.05221320001874,127.05221320001874,127.67007029999513,z,1,0.6137124000233598,None,,,,,Participant 01,001,2025-10-05_00h04.10.706,Motor sequence task,,2025.1.1,59.89236145112884,2025-10-05 00h04.24.179339 +0530,
-50,x,52,0,13,x,1,0.46993130003102124,None,13,0,52,0,,,,,127.68595630000345,,127.67047229997115,127.68595630000345,128.67121429997496,128.67121429997496,128.67121429997496,128.67121429997496,128.6869422000018,129.67207049997523,129.67207049997523,130.1561767999665,x,1,0.46993130003102124,None,,,,,Participant 01,001,2025-10-05_00h04.10.706,Motor sequence task,,2025.1.1,59.89236145112884,2025-10-05 00h04.24.179339 +0530,
150,v,53,1,13,v,1,0.3832603000337258,None,13,1,53,1,,,,,130.1727565000183,,130.15655569999944,130.1727565000183,131.15645469998708,131.15645469998708,131.15645469998708,131.15645469998708,131.1731386000174,132.15737490000902,132.15737490000902,132.54174770001555,v,1,0.3832603000337258,None,,,,,Participant 01,001,2025-10-05_00h04.10.706,Motor sequence task,,2025.1.1,59.89236145112884,2025-10-05 00h04.24.179339 +0530,
50,c,54,2,13,c,1,0.3250078000128269,None,13,2,54,2,,,,,132.5580670000054,,132.54206030000933,132.5580670000054,133.54242269997485,133.54242269997485,133.54242269997485,133.54242269997485,133.55910589999985,134.54334999999264,134.54334999999264,134.87835600000108,c,1,0.3250078000128269,None,,,,,Participant 01,001,2025-10-05_00h04.10.706,Motor sequence task,,2025.1.1,59.89236145112884,2025-10-05 00h04.24.179339 +0530,
-150,z,55,3,13,z,1,0.7179381000460126,None,13,3,55,3,,,,,134.89362759998767,,134.87872239999706,134.89362759998767,135.87883910001256,135.87883910001256,135.87883910001256,135.87883910001256,135.89557549997699,136.87984639999922,136.87984639999922,137.61465359997237,z,1,0.7179381000460126,None,,,,,Participant 01,001,2025-10-05_00h04.10.706,Motor sequence task,,2025.1.1,59.89236145112884,2025-10-05 00h04.24.179339 +0530,
-50,x,56,0,14,x,1,0.41560030000982806,None,14,0,56,0,,,,,137.63091249996796,,137.615023499995,137.63091249996796,138.61505279998528,138.61505279998528,138.61505279998528,138.61505279998528,138.63195140002063,139.61590069998056,139.61590069998056,140.0339150999789,x,1,0.41560030000982806,None,,,,,Participant 01,001,2025-10-05_00h04.10.706,Motor sequence task,,2025.1.1,59.89236145112884,2025-10-05 00h04.24.179339 +0530,
150,v,57,1,14,v,1,1.161891600000672,None,14,1,57,1,,,,,140.04923190001864,,140.03428620001068,140.04923190001864,141.03460690000793,141.03460690000793,141.03460690000793,141.03460690000793,141.05124389997218,142.03478789998917,142.03478789998917,143.2036148000043,v,1,1.161891600000672,None,,,,,Participant 01,001,2025-10-05_00h04.10.706,Motor sequence task,,2025.1.1,59.89236145112884,2025-10-05 00h04.24.179339 +0530,
50,c,58,2,14,c,1,0.3344807999674231,None,14,2,58,2,,,,,143.21986219997052,,143.20404719997896,143.21986219997052,144.20520159997977,144.20520159997977,144.20520159997977,144.20520159997977,144.22066930000437,145.20578479999676,145.20578479999676,145.55663589999313,c,1,0.3344807999674231,None,,,,,Participant 01,001,2025-10-05_00h04.10.706,Motor sequence task,,2025.1.1,59.89236145112884,2025-10-05 00h04.24.179339 +0530,
-150,z,59,3,14,z,1,0.3900864000315778,None,14,3,59,3,,,,,145.57222879998153,,145.55694999999832,145.57222879998153,146.5564043999766,146.5564043999766,146.5564043999766,146.5564043999766,146.57415970001603,147.55789529997855,147.55789529997855,147.95930849999422,z,1,0.3900864000315778,None,,,,,Participant 01,001,2025-10-05_00h04.10.706,Motor sequence task,,2025.1.1,59.89236145112884,2025-10-05 00h04.24.179339 +0530,
-50,x,60,0,15,x,1,0.31604559998959303,None,15,0,60,0,,,,,147.97560050000902,,147.95968999998877,147.97560050000902,148.95975079998607,148.95975079998607,148.95975079998607,148.95975079998607,148.97644539998146,149.9605899999733,149.9605899999733,150.27762670000084,x,1,0.31604559998959303,None,,,,,Participant 01,001,2025-10-05_00h04.10.706,Motor sequence task,,2025.1.1,59.89236145112884,2025-10-05 00h04.24.179339 +0530,
150,v,61,1,15,v,1,0.1036595000186935,None,15,1,61,1,,,,,150.29411189997336,,150.27792239998234,150.29411189997336,151.2786339999875,151.2786339999875,151.2786339999875,151.2786339999875,151.29505740001332,152.28292879997753,152.28292879997753,152.3971007000073,v,1,0.1036595000186935,None,,,,,Participant 01,001,2025-10-05_00h04.10.706,Motor sequence task,,2025.1.1,59.89236145112884,2025-10-05 00h04.24.179339 +0530,
50,c,62,2,15,c,1,0.3098697999957949,None,15,2,62,2,,,,,152.4133473999682,,152.39758099999744,152.4133473999682,153.39796809997642,153.39796809997642,153.39796809997642,153.39796809997642,153.41421269997954,154.39836619998096,154.39836619998096,154.71567940001842,c,1,0.3098697999957949,None,,,,,Participant 01,001,2025-10-05_00h04.10.706,Motor sequence task,,2025.1.1,59.89236145112884,2025-10-05 00h04.24.179339 +0530,
-150,z,63,3,15,z,1,0.3689096000161953,None,15,3,63,3,,,,,154.7321266999934,,154.71604510000907,154.7321266999934,155.7174059000099,155.7174059000099,155.7174059000099,155.7174059000099,155.7337577000144,156.71818690001965,156.71818690001965,157.1025450999732,z,1,0.3689096000161953,None,,,,,Participant 01,001,2025-10-05_00h04.10.706,Motor sequence task,,2025.1.1,59.89236145112884,2025-10-05 00h04.24.179339 +0530,
-50,x,64,0,16,x,1,0.3295403000083752,None,16,0,64,0,,,,,157.11894690000918,,157.1028669999796,157.11894690000918,158.10316290002083,158.10316290002083,158.10316290002083,158.10316290002083,158.12004609999713,159.1040309999953,159.1040309999953,159.43799230002332,x,1,0.3295403000083752,None,,,,,Participant 01,001,2025-10-05_00h04.10.706,Motor sequence task,,2025.1.1,59.89236145112884,2025-10-05 00h04.24.179339 +0530,
150,v,65,1,16,v,1,0.14430049998918548,None,16,1,65,1,,,,,159.45443220000016,,159.43833919998724,159.45443220000016,160.43830709997565,160.43830709997565,160.43830709997565,160.43830709997565,160.4551834000158,161.43945399997756,161.43945399997756,161.59099419997074,v,1,0.14430049998918548,None,,,,,Participant 01,001,2025-10-05_00h04.10.706,Motor sequence task,,2025.1.1,59.89236145112884,2025-10-05 00h04.24.179339 +0530,
50,c,66,2,16,c,1,0.45788589998846874,None,16,2,66,2,,,,,161.60676090000197,,161.59132150001824,161.60676090000197,162.59150079998653,162.59150079998653,162.59150079998653,162.59150079998653,162.60814440000104,163.5922045999905,163.5922045999905,164.05954849999398,c,1,0.45788589998846874,None,,,,,Participant 01,001,2025-10-05_00h04.10.706,Motor sequence task,,2025.1.1,59.89236145112884,2025-10-05 00h04.24.179339 +0530,
-150,z,67,3,16,z,1,0.29856099997414276,None,16,3,67,3,,,,,164.0759806999704,,164.05988379998598,164.0759806999704,165.06114549998892,165.06114549998892,165.06114549998892,165.06114549998892,165.07678639999358,166.0620215999661,166.0620215999661,166.3624245999963,z,1,0.29856099997414276,None,,,,,Participant 01,001,2025-10-05_00h04.10.706,Motor sequence task,,2025.1.1,59.89236145112884,2025-10-05 00h04.24.179339 +0530,
-50,x,68,0,17,x,1,0.2975628999993205,None,17,0,68,0,,,,,166.37867269996786,,166.3628581999801,166.37867269996786,167.36290060001193,167.36290060001193,167.36290060001193,167.36290060001193,167.37971329997526,168.36381130001973,168.36381130001973,168.66544609999983,x,1,0.2975628999993205,None,,,,,Participant 01,001,2025-10-05_00h04.10.706,Motor sequence task,,2025.1.1,59.89236145112884,2025-10-05 00h04.24.179339 +0530,
150,v,69,1,17,v,1,0.25943009997718036,None,17,1,69,1,,,,,168.68078049999895,,168.66580519999843,168.68078049999895,169.66578849998768,169.66578849998768,169.66578849998768,169.66578849998768,169.68258119997336,170.6667979999911,170.6667979999911,170.93369969999185,v,1,0.25943009997718036,None,,,,,Participant 01,001,2025-10-05_00h04.10.706,Motor sequence task,,2025.1.1,59.89236145112884,2025-10-05 00h04.24.179339 +0530,
50,c,70,2,17,c,1,0.2270526000065729,None,17,2,70,2,,,,,170.94992699997965,,170.9340790999704,170.94992699997965,171.935127499979,171.935127499979,171.935127499979,171.935127499979,171.9518487000023,172.93593189999228,172.93593189999228,173.16933569998946,c,1,0.2270526000065729,None,,,,,Participant 01,001,2025-10-05_00h04.10.706,Motor sequence task,,2025.1.1,59.89236145112884,2025-10-05 00h04.24.179339 +0530,
-150,z,71,3,17,z,1,0.6502428000094369,None,17,3,71,3,,,,,173.18582770001376,,173.16964540001936,173.18582770001376,174.17090929998085,174.17090929998085,174.17090929998085,174.17090929998085,174.1876172000193,175.17077949998202,175.17077949998202,175.8227135000052,z,1,0.6502428000094369,None,,,,,Participant 01,001,2025-10-05_00h04.10.706,Motor sequence task,,2025.1.1,59.89236145112884,2025-10-05 00h04.24.179339 +0530,
-50,x,72,0,18,x,1,0.34699320001527667,None,18,0,72,0,,,,,175.8389702999848,,175.8232699999935,175.8389702999848,176.8232188000111,176.8232188000111,176.8232188000111,176.8232188000111,176.83991219999734,177.82406409998657,177.82406409998657,178.17598880000878,x,1,0.34699320001527667,None,,,,,Participant 01,001,2025-10-05_00h04.10.706,Motor sequence task,,2025.1.1,59.89236145112884,2025-10-05 00h04.24.179339 +0530,
150,v,73,1,18,v,1,0.37017359997844324,None,18,1,73,1,,,,,178.19207420002203,,178.17674439999973,178.19207420002203,179.1764435999794,179.1764435999794,179.1764435999794,179.1764435999794,179.1932457999792,180.1772308999789,180.1772308999789,180.56174390000524,v,1,0.37017359997844324,None,,,,,Participant 01,001,2025-10-05_00h04.10.706,Motor sequence task,,2025.1.1,59.89236145112884,2025-10-05 00h04.24.179339 +0530,
50,c,74,2,18,c,1,0.3152671999996528,None,18,2,74,2,,,,,180.57731369999237,,180.5621092999936,180.57731369999237,181.56217950000428,181.56217950000428,181.56217950000428,181.56217950000428,181.57886609999696,182.5630305999657,182.5630305999657,182.88071559998207,c,1,0.3152671999996528,None,,,,,Participant 01,001,2025-10-05_00h04.10.706,Motor sequence task,,2025.1.1,59.89236145112884,2025-10-05 00h04.24.179339 +0530,
-150,z,75,3,18,z,1,0.5761007000110112,None,18,3,75,3,,,,,182.89584959996864,,182.8811894999817,182.89584959996864,183.8809545999975,183.8809545999975,183.8809545999975,183.8809545999975,183.89753830002155,184.88270399998873,184.88270399998873,185.46646409999812,z,1,0.5761007000110112,None,,,,,Participant 01,001,2025-10-05_00h04.10.706,Motor sequence task,,2025.1.1,59.89236145112884,2025-10-05 00h04.24.179339 +0530,
-50,x,76,0,19,x,1,0.3407130000414327,None,19,0,76,0,,,,,185.48272079997696,,185.46676450001542,185.48272079997696,186.467110699974,186.467110699974,186.467110699974,186.467110699974,186.48383979999926,187.46907069999725,187.46907069999725,187.82084359996952,x,1,0.3407130000414327,None,,,,,Participant 01,001,2025-10-05_00h04.10.706,Motor sequence task,,2025.1.1,59.89236145112884,2025-10-05 00h04.24.179339 +0530,
150,v,77,1,19,v,1,0.27881660003913566,None,19,1,77,1,,,,,187.83601839997573,,187.8211910999962,187.83601839997573,188.82023239997216,188.82023239997216,188.82023239997216,188.82023239997216,188.83685269998387,189.82096440001624,189.82096440001624,190.10466559999622,v,1,0.27881660003913566,None,,,,,Participant 01,001,2025-10-05_00h04.10.706,Motor sequence task,,2025.1.1,59.89236145112884,2025-10-05 00h04.24.179339 +0530,
50,c,78,2,19,c,1,0.5157916999887675,None,19,2,78,2,,,,,190.1211687999894,,190.10500889999093,190.1211687999894,191.10520960000576,191.10520960000576,191.10520960000576,191.10520960000576,191.1219434000086,192.10732349997852,192.10732349997852,192.6249089000048,c,1,0.5157916999887675,None,,,,,Participant 01,001,2025-10-05_00h04.10.706,Motor sequence task,,2025.1.1,59.89236145112884,2025-10-05 00h04.24.179339 +0530,
-150,z,79,3,19,z,1,0.577380099974107,None,19,3,79,3,,,,,192.64125230000354,,192.6252734999871,192.64125230000354,193.62501949997386,193.62501949997386,193.62501949997386,193.62501949997386,193.64210449997336,194.6261255000136,194.6261255000136,195.2108815999818,z,1,0.577380099974107,None,,,,,Participant 01,001,2025-10-05_00h04.10.706,Motor sequence task,,2025.1.1,59.89236145112884,2025-10-05 00h04.24.179339 +0530,
-50,x,80,0,20,x,1,0.33453320001717657,None,20,0,80,0,,,,,195.22714420000557,,195.21126100001857,195.22714420000557,196.21145140001317,196.21145140001317,196.21145140001317,196.21145140001317,196.22809170000255,197.21243309997953,197.21243309997953,197.56311119999737,x,1,0.33453320001717657,None,,,,,Participant 01,001,2025-10-05_00h04.10.706,Motor sequence task,,2025.1.1,59.89236145112884,2025-10-05 00h04.24.179339 +0530,
150,v,81,1,20,v,1,0.27848749997792765,None,20,1,81,1,,,,,197.57971859996906,,197.563422599982,197.57971859996906,198.5636657999712,198.5636657999712,198.5636657999712,198.5636657999712,198.58053909998853,199.5648124999716,199.5648124999716,199.8492849000031,v,1,0.27848749997792765,None,,,,,Participant 01,001,2025-10-05_00h04.10.706,Motor sequence task,,2025.1.1,59.89236145112884,2025-10-05 00h04.24.179339 +0530,
50,c,82,2,20,c,1,0.2881646000314504,None,20,2,82,2,,,,,199.86573700001463,,199.84965819999343,199.86573700001463,200.84972729999572,200.84972729999572,200.84972729999572,200.84972729999572,200.86645640002098,201.8507955999812,201.8507955999812,202.15240409999387,c,1,0.2881646000314504,None,,,,,Participant 01,001,2025-10-05_00h04.10.706,Motor sequence task,,2025.1.1,59.89236145112884,2025-10-05 00h04.24.179339 +0530,
-150,z,83,3,20,z,1,0.5634210999705829,None,20,3,83,3,,,,,202.16750669997418,,202.15279809996719,202.16750669997418,203.15274160000263,203.15274160000263,203.15274160000263,203.15274160000263,203.169481799996,204.15373770002043,204.15373770002043,204.72176759998547,z,1,0.5634210999705829,None,,,,,Participant 01,001,2025-10-05_00h04.10.706,Motor sequence task,,2025.1.1,59.89236145112884,2025-10-05 00h04.24.179339 +0530,
-50,x,84,0,21,x,1,0.31590139999752864,None,21,0,84,0,,,,,204.7382210000069,,204.72209589998238,204.7382210000069,205.72209940000903,205.72209940000903,205.72209940000903,205.72209940000903,205.738904799975,206.72280360001605,206.72280360001605,207.04007779998938,x,1,0.31590139999752864,None,,,,,Participant 01,001,2025-10-05_00h04.10.706,Motor sequence task,,2025.1.1,59.89236145112884,2025-10-05 00h04.24.179339 +0530,
150,v,85,1,21,v,1,0.30682970001362264,None,21,1,85,1,,,,,207.0567018999718,,207.04049210000085,207.0567018999718,208.04079639998963,208.04079639998963,208.04079639998963,208.04079639998963,208.05759879999096,209.04273400001694,209.04273400001694,209.35984940000344,v,1,0.30682970001362264,None,,,,,Participant 01,001,2025-10-05_00h04.10.706,Motor sequence task,,2025.1.1,59.89236145112884,2025-10-05 00h04.24.179339 +0530,
50,c,86,2,21,c,1,0.3787065999931656,None,21,2,86,2,,,,,209.37634309998248,,209.3601513999747,209.37634309998248,210.36041929997737,210.36041929997737,210.36041929997737,210.36041929997737,210.3771543999901,211.3611593999667,211.3611593999667,211.74575499998173,c,1,0.3787065999931656,None,,,,,Participant 01,001,2025-10-05_00h04.10.706,Motor sequence task,,2025.1.1,59.89236145112884,2025-10-05 00h04.24.179339 +0530,
-150,z,87,3,21,z,1,0.3536136000184342,None,21,3,87,3,,,,,211.762034400017,,211.74620519997552,211.762034400017,212.74592439999105,212.74592439999105,212.74592439999105,212.74592439999105,212.7629216000205,213.74687520001316,213.74687520001316,214.11481300002197,z,1,0.3536136000184342,None,,,,,Participant 01,001,2025-10-05_00h04.10.706,Motor sequence task,,2025.1.1,59.89236145112884,2025-10-05 00h04.24.179339 +0530,
-50,x,88,0,22,x,1,0.2503568999818526,None,22,0,88,0,,,,,214.13095089996932,,214.11522320000222,214.13095089996932,215.11550690000877,215.11550690000877,215.11550690000877,215.11550690000877,215.1330754000228,216.1161888000206,216.1161888000206,216.3673243999947,x,1,0.2503568999818526,None,,,,,Participant 01,001,2025-10-05_00h04.10.706,Motor sequence task,,2025.1.1,59.89236145112884,2025-10-05 00h04.24.179339 +0530,
150,v,89,1,22,v,1,0.38949730002786964,None,22,1,89,1,,,,,216.3835646000225,,216.36803680000594,216.3835646000225,217.3677704000147,217.3677704000147,217.3677704000147,217.3677704000147,217.38426849996904,218.3686391999945,218.3686391999945,218.7700673000072,v,1,0.38949730002786964,None,,,,,Participant 01,001,2025-10-05_00h04.10.706,Motor sequence task,,2025.1.1,59.89236145112884,2025-10-05 00h04.24.179339 +0530,
50,c,90,2,22,c,1,0.4961261000134982,None,22,2,90,2,,,,,218.785513299983,,218.77044320001733,218.785513299983,219.77024420001544,219.77024420001544,219.77024420001544,219.77024420001544,219.78656599996611,220.77129000000423,220.77129000000423,221.2731287999777,c,1,0.4961261000134982,None,,,,,Participant 01,001,2025-10-05_00h04.10.706,Motor sequence task,,2025.1.1,59.89236145112884,2025-10-05 00h04.24.179339 +0530,
-150,z,91,3,22,z,1,0.3835114000248723,None,22,3,91,3,,,,,221.28855920000933,,221.27350680000382,221.28855920000933,222.27370229997905,222.27370229997905,222.27370229997905,222.27370229997905,222.29040980001446,223.2743273000233,223.2743273000233,223.65880319999997,z,1,0.3835114000248723,None,,,,,Participant 01,001,2025-10-05_00h04.10.706,Motor sequence task,,2025.1.1,59.89236145112884,2025-10-05 00h04.24.179339 +0530,
-50,x,92,0,23,x,1,0.3537566000013612,None,23,0,92,0,,,,,223.6753638999653,,223.6591150999884,223.6753638999653,224.6591415000148,224.6591415000148,224.6591415000148,224.6591415000148,224.6759820000152,225.66012499999488,225.66012499999488,226.0277132000192,x,1,0.3537566000013612,None,,,,,Participant 01,001,2025-10-05_00h04.10.706,Motor sequence task,,2025.1.1,59.89236145112884,2025-10-05 00h04.24.179339 +0530,
150,v,93,1,23,v,1,0.6033720000414178,None,23,1,93,1,,,,,226.04412799997954,,226.02802199998405,226.04412799997954,227.02838699996937,227.02838699996937,227.02838699996937,227.02838699996937,227.0452251000097,228.02938989998074,228.02938989998074,228.6474817999988,v,1,0.6033720000414178,None,,,,,Participant 01,001,2025-10-05_00h04.10.706,Motor sequence task,,2025.1.1,59.89236145112884,2025-10-05 00h04.24.179339 +0530,
50,c,94,2,23,c,1,0.30204260000027716,None,23,2,94,2,,,,,228.6639400999993,,228.64778489997843,228.6639400999993,229.64788010000484,229.64788010000484,229.64788010000484,229.64788010000484,229.66483849997167,230.64879780000774,230.64879780000774,230.96634129999438,c,1,0.30204260000027716,None,,,,,Participant 01,001,2025-10-05_00h04.10.706,Motor sequence task,,2025.1.1,59.89236145112884,2025-10-05 00h04.24.179339 +0530,
-150,z,95,3,23,z,1,0.3434113999828696,None,23,3,95,3,,,,,230.98250099999132,,230.9666467999923,230.98250099999132,231.9678341000108,231.9678341000108,231.9678341000108,231.9678341000108,231.9834942999878,232.9688739000121,232.9688739000121,233.31955010001548,z,1,0.3434113999828696,None,,,,,Participant 01,001,2025-10-05_00h04.10.706,Motor sequence task,,2025.1.1,59.89236145112884,2025-10-05 00h04.24.179339 +0530,
-50,x,96,0,24,x,1,0.3731141000171192,None,24,0,96,0,,,,,233.33581710001454,,233.31994030001806,233.33581710001454,234.31976829998894,234.31976829998894,234.31976829998894,234.31976829998894,234.3368112000171,235.320737299975,235.320737299975,235.705215999973,x,1,0.3731141000171192,None,,,,,Participant 01,001,2025-10-05_00h04.10.706,Motor sequence task,,2025.1.1,59.89236145112884,2025-10-05 00h04.24.179339 +0530,
150,v,97,1,24,v,1,0.36841600004117936,None,24,1,97,1,,,,,235.72184640000341,,235.70551210001577,235.72184640000341,236.70556719996966,236.70556719996966,236.70556719996966,236.70556719996966,236.72251459996914,237.70679419999942,237.70679419999942,238.09091269999044,v,1,0.36841600004117936,None,,,,,Participant 01,001,2025-10-05_00h04.10.706,Motor sequence task,,2025.1.1,59.89236145112884,2025-10-05 00h04.24.179339 +0530,
50,c,98,2,24,c,1,0.26713709998875856,None,24,2,98,2,,,,,238.10723809996853,,238.09129949996714,238.10723809996853,239.09136879997095,239.09136879997095,239.09136879997095,239.09136879997095,239.10823830001755,240.09338199999183,240.09338199999183,240.37700500001665,c,1,0.26713709998875856,None,,,,,Participant 01,001,2025-10-05_00h04.10.706,Motor sequence task,,2025.1.1,59.89236145112884,2025-10-05 00h04.24.179339 +0530,
-150,z,99,3,24,z,1,0.38966739998431876,None,24,3,99,3,,,,,240.3933671999839,,240.37731810001424,240.3933671999839,241.37760219996562,241.37760219996562,241.37760219996562,241.37760219996562,241.3942525999737,242.37856659997487,242.37856659997487,242.7795383000048,z,1,0.38966739998431876,None,,,,,Participant 01,001,2025-10-05_00h04.10.706,Motor sequence task,,2025.1.1,59.89236145112884,2025-10-05 00h04.24.179339 +0530,
-50,x,0,0,0,x,1,0.3539118000189774,None,,,,,0,0,0,0,242.79606419999618,,242.78500909998547,242.79606419999618,243.78022449999116,243.78022449999116,243.78022449999116,243.78022449999116,243.79686469997978,244.78105039999355,244.78105039999355,245.14915760001168,,,,,x,1,0.3539118000189774,None,Participant 01,001,2025-10-05_00h04.10.706,Motor sequence task,,2025.1.1,59.89236145112884,2025-10-05 00h04.24.179339 +0530,
150,v,1,1,0,v,1,0.61064449994592,None,,,,,0,1,1,1,245.16485489998013,,245.14953870000318,245.16485489998013,246.14959280000767,246.14959280000767,246.14959280000767,246.14959280000767,246.1658269999898,247.15026919997763,247.15026919997763,247.76863259996753,,,,,v,1,0.61064449994592,None,Participant 01,001,2025-10-05_00h04.10.706,Motor sequence task,,2025.1.1,59.89236145112884,2025-10-05 00h04.24.179339 +0530,
150,v,2,2,1,v,1,0.6163488000165671,None,,,,,1,2,2,1,247.78464919998078,,247.7690621999791,247.78464919998078,248.76891009998508,248.76891009998508,248.76891009998508,248.76891009998508,248.7857595999958,249.7697803999763,249.7697803999763,250.3882374999812,,,,,v,1,0.6163488000165671,None,Participant 01,001,2025-10-05_00h04.10.706,Motor sequence task,,2025.1.1,59.89236145112884,2025-10-05 00h04.24.179339 +0530,
50,c,3,3,0,c,1,0.46089129999745637,None,,,,,0,3,3,2,250.40441050002119,,250.38856930000475,250.40441050002119,251.3884379999945,251.3884379999945,251.3884379999945,251.3884379999945,251.40526640001917,252.3899139999994,252.3899139999994,252.85704689996783,,,,,c,1,0.46089129999745637,None,Participant 01,001,2025-10-05_00h04.10.706,Motor sequence task,,2025.1.1,59.89236145112884,2025-10-05 00h04.24.179339 +0530,
-50,x,4,4,1,x,1,1.0790178999886848,None,,,,,1,4,4,0,252.87319120002212,,252.85752859996865,252.87319120002212,253.85827959998278,253.85827959998278,253.85827959998278,253.85827959998278,253.87483809998957,254.85921159997815,254.85921159997815,255.9446609999868,,,,,x,1,1.0790178999886848,None,Participant 01,001,2025-10-05_00h04.10.706,Motor sequence task,,2025.1.1,59.89236145112884,2025-10-05 00h04.24.179339 +0530,
-50,x,5,5,2,x,1,1.6063256999477744,None,,,,,2,5,5,0,255.95989100000588,,255.9450883999816,255.95989100000588,256.94561019999674,256.94561019999674,256.94561019999674,256.94561019999674,256.9608438999858,257.9456204000162,257.9456204000162,259.56548940000357,,,,,x,1,1.6063256999477744,None,Participant 01,001,2025-10-05_00h04.10.706,Motor sequence task,,2025.1.1,59.89236145112884,2025-10-05 00h04.24.179339 +0530,
-50,x,6,6,3,x,1,0.5221436000429094,None,,,,,3,6,6,0,259.5816245999886,,259.5659995999886,259.5816245999886,260.56551169999875,260.56551169999875,260.56551169999875,260.56551169999875,260.582386199967,261.56640969996806,261.56640969996806,262.10101019998547,,,,,x,1,0.5221436000429094,None,Participant 01,001,2025-10-05_00h04.10.706,Motor sequence task,,2025.1.1,59.89236145112884,2025-10-05 00h04.24.179339 +0530,
150,v,7,7,2,v,1,1.141774300020188,None,,,,,2,7,7,1,262.1174488000106,,262.1014107000083,262.1174488000106,263.10128579998855,263.10128579998855,263.10128579998855,263.10128579998855,263.1180551999714,264.10219489998417,264.10219489998417,265.2548363999813,,,,,v,1,1.141774300020188,None,Participant 01,001,2025-10-05_00h04.10.706,Motor sequence task,,2025.1.1,59.89236145112884,2025-10-05 00h04.24.179339 +0530,
150,v,8,8,3,v,1,0.6321810999652371,None,,,,,3,8,8,1,265.27110489999177,,265.25518189999275,265.27110489999177,266.25506469997345,266.25506469997345,266.25506469997345,266.25506469997345,266.2720031000208,267.25596300000325,267.25596300000325,267.8901976000052,,,,,v,1,0.6321810999652371,None,Participant 01,001,2025-10-05_00h04.10.706,Motor sequence task,,2025.1.1,59.89236145112884,2025-10-05 00h04.24.179339 +0530,
-50,x,9,9,4,x,1,0.8664047999773175,None,,,,,4,9,9,0,267.906462599989,,267.8905690999818,267.906462599989,268.8913996000192,268.8913996000192,268.8913996000192,268.8913996000192,268.9085146000143,269.8925498999888,269.8925498999888,270.76061379996827,,,,,x,1,0.8664047999773175,None,Participant 01,001,2025-10-05_00h04.10.706,Motor sequence task,,2025.1.1,59.89236145112884,2025-10-05 00h04.24.179339 +0530,
-50,x,10,10,5,x,1,0.9402195999864489,None,,,,,5,10,10,0,270.7770320000127,,270.7609956000233,270.7770320000127,271.7614340999862,271.7614340999862,271.7614340999862,271.7614340999862,271.7771253999672,272.76189999998314,272.76189999998314,273.71334690001095,,,,,x,1,0.9402195999864489,None,Participant 01,001,2025-10-05_00h04.10.706,Motor sequence task,,2025.1.1,59.89236145112884,2025-10-05 00h04.24.179339 +0530,
50,c,11,11,1,c,1,0.6219108999939635,None,,,,,1,11,11,2,273.73032500001136,,273.713665999996,273.73032500001136,274.71445319999475,274.71445319999475,274.71445319999475,274.71445319999475,274.7313216999755,275.7151991999708,275.7151991999708,276.34950369998114,,,,,c,1,0.6219108999939635,None,Participant 01,001,2025-10-05_00h04.10.706,Motor sequence task,,2025.1.1,59.89236145112884,2025-10-05 00h04.24.179339 +0530,
150,v,12,12,4,v,1,0.3187577999779023,None,,,,,4,12,12,1,276.36588389996905,,276.34987879998516,276.36588389996905,277.35099970002193,277.35099970002193,277.35099970002193,277.35099970002193,277.3670374000212,278.35177690000273,278.35177690000273,278.6859933999949,,,,,v,1,0.3187577999779023,None,Participant 01,001,2025-10-05_00h04.10.706,Motor sequence task,,2025.1.1,59.89236145112884,2025-10-05 00h04.24.179339 +0530,
-50,x,13,13,6,x,1,0.6248254999518394,None,,,,,6,13,13,0,278.70231530000456,,278.6863573999726,278.70231530000456,279.68659870000556,279.68659870000556,279.68659870000556,279.68659870000556,279.7031799000106,280.68726699997205,280.68726699997205,281.3224833999993,,,,,x,1,0.6248254999518394,None,Participant 01,001,2025-10-05_00h04.10.706,Motor sequence task,,2025.1.1,59.89236145112884,2025-10-05 00h04.24.179339 +0530,
-150,z,14,14,0,z,1,0.3940874999971129,None,,,,,0,14,14,3,281.33790779998526,,281.3228554999805,281.33790779998526,282.32303470000625,282.32303470000625,282.32303470000625,282.32303470000625,282.33974480000325,283.32389599998714,283.32389599998714,283.7251814000192,,,,,z,1,0.3940874999971129,None,Participant 01,001,2025-10-05_00h04.10.706,Motor sequence task,,2025.1.1,59.89236145112884,2025-10-05 00h04.24.179339 +0530,
-50,x,15,15,7,x,1,0.3850590999936685,None,,,,,7,15,15,0,283.74031159997685,,283.72573210002156,283.74031159997685,284.7257797999773,284.7257797999773,284.7257797999773,284.7257797999773,284.7423369999742,285.726245799975,285.726245799975,286.12822279997636,,,,,x,1,0.3850590999936685,None,Participant 01,001,2025-10-05_00h04.10.706,Motor sequence task,,2025.1.1,59.89236145112884,2025-10-05 00h04.24.179339 +0530,
50,c,16,16,2,c,1,0.30313449999084696,None,,,,,2,16,16,2,286.1431879000156,,286.1286551000085,286.1431879000156,287.12810510001145,287.12810510001145,287.12810510001145,287.12810510001145,287.1449562999769,288.12888440000825,288.12888440000825,288.44671539997216,,,,,c,1,0.30313449999084696,None,Participant 01,001,2025-10-05_00h04.10.706,Motor sequence task,,2025.1.1,59.89236145112884,2025-10-05 00h04.24.179339 +0530,
50,c,17,17,3,c,1,0.38774049998028204,None,,,,,3,17,17,2,288.4626901000156,,288.4471704000025,288.4626901000156,289.4477295000106,289.4477295000106,289.4477295000106,289.4477295000106,289.46349749999354,290.4485429999768,290.4485429999768,290.8489896999672,,,,,c,1,0.38774049998028204,None,Participant 01,001,2025-10-05_00h04.10.706,Motor sequence task,,2025.1.1,59.89236145112884,2025-10-05 00h04.24.179339 +0530,
-150,z,18,18,1,z,1,0.7398098999983631,None,,,,,1,18,18,3,290.86541839997517,,290.8493259999668,290.86541839997517,291.84962399996584,291.84962399996584,291.84962399996584,291.84962399996584,291.8660121000139,292.8513659000164,292.8513659000164,293.6017004000023,,,,,z,1,0.7398098999983631,None,Participant 01,001,2025-10-05_00h04.10.706,Motor sequence task,,2025.1.1,59.89236145112884,2025-10-05 00h04.24.179339 +0530,
150,v,19,19,5,v,1,0.5046431999653578,None,,,,,5,19,19,1,293.6182297000196,,293.60200509999413,293.6182297000196,294.60230029997183,294.60230029997183,294.60230029997183,294.60230029997183,294.6190156000084,295.6039811000228,295.6039811000228,296.1218580999994,,,,,v,1,0.5046431999653578,None,Participant 01,001,2025-10-05_00h04.10.706,Motor sequence task,,2025.1.1,59.89236145112884,2025-10-05 00h04.24.179339 +0530,
150,v,20,20,6,v,1,0.9393059000140056,None,,,,,6,20,20,1,296.1382353999652,,296.1223491000128,296.1382353999652,297.12244489998557,297.12244489998557,297.12244489998557,297.12244489998557,297.139027600002,298.1231988000218,298.1231988000218,299.0752869999851,,,,,v,1,0.9393059000140056,None,Participant 01,001,2025-10-05_00h04.10.706,Motor sequence task,,2025.1.1,59.89236145112884,2025-10-05 00h04.24.179339 +0530,
50,c,21,21,4,c,1,0.6554559000069275,None,,,,,4,21,21,2,299.0914729000069,,299.0756589999655,299.0914729000069,300.0756262000068,300.0756262000068,300.0756262000068,300.0756262000068,300.0926703999867,301.0765657000011,301.0765657000011,301.7440882999799,,,,,c,1,0.6554559000069275,None,Participant 01,001,2025-10-05_00h04.10.706,Motor sequence task,,2025.1.1,59.89236145112884,2025-10-05 00h04.24.179339 +0530,
50,c,22,22,5,c,1,0.583715700020548,None,,,,,5,22,22,2,301.7607873000088,,301.7443989000167,301.7607873000088,302.74478649999946,302.74478649999946,302.74478649999946,302.74478649999946,302.76148109999485,303.7457619999768,303.7457619999768,304.3302370000165,,,,,c,1,0.583715700020548,None,Participant 01,001,2025-10-05_00h04.10.706,Motor sequence task,,2025.1.1,59.89236145112884,2025-10-05 00h04.24.179339 +0530,
150,v,23,23,7,v,1,0.481861200009007,None,,,,,7,23,23,1,304.3466996999923,,304.3305621999898,304.3466996999923,305.33100840001134,305.33100840001134,305.33100840001134,305.33100840001134,305.34779139998136,306.3318119000178,306.3318119000178,306.8173402000102,,,,,v,1,0.481861200009007,None,Participant 01,001,2025-10-05_00h04.10.706,Motor sequence task,,2025.1.1,59.89236145112884,2025-10-05 00h04.24.179339 +0530,
50,c,24,24,6,c,1,0.48193670000182465,None,,,,,6,24,24,2,306.83256150002126,,306.8178509999998,306.83256150002126,307.81741050002165,307.81741050002165,307.81741050002165,307.81741050002165,307.834329699981,308.818127800012,308.818127800012,309.3023114000098,,,,,c,1,0.48193670000182465,None,Participant 01,001,2025-10-05_00h04.10.706,Motor sequence task,,2025.1.1,59.89236145112884,2025-10-05 00h04.24.179339 +0530,
-150,z,25,25,2,z,1,0.6892971000052057,None,,,,,2,25,25,3,309.3189432999934,,309.3027141999919,309.3189432999934,310.30287369998405,310.30287369998405,310.30287369998405,310.30287369998405,310.3196221999824,311.30475850001676,311.30475850001676,312.0060322000063,,,,,z,1,0.6892971000052057,None,Participant 01,001,2025-10-05_00h04.10.706,Motor sequence task,,2025.1.1,59.89236145112884,2025-10-05 00h04.24.179339 +0530,
-50,x,26,26,8,x,1,0.6046231999644078,None,,,,,8,26,26,0,312.0213536999654,,312.0064164000214,312.0213536999654,313.006544200005,313.006544200005,313.006544200005,313.006544200005,313.02330509998137,314.0072790000122,314.0072790000122,314.6250209999853,,,,,x,1,0.6046231999644078,None,Participant 01,001,2025-10-05_00h04.10.706,Motor sequence task,,2025.1.1,59.89236145112884,2025-10-05 00h04.24.179339 +0530,
50,c,27,27,7,c,1,1.0570384999737144,None,,,,,7,27,27,2,314.6411078000092,,314.62542619998567,314.6411078000092,315.6259606999811,315.6259606999811,315.6259606999811,315.6259606999811,315.6428623999818,316.62722309998935,316.62722309998935,317.6962422999786,,,,,c,1,1.0570384999737144,None,Participant 01,001,2025-10-05_00h04.10.706,Motor sequence task,,2025.1.1,59.89236145112884,2025-10-05 00h04.24.179339 +0530,
150,v,28,28,8,v,1,1.457576800021343,None,,,,,8,28,28,1,317.71085460000904,,317.6966479999828,317.71085460000904,318.69614929996897,318.69614929996897,318.69614929996897,318.69614929996897,318.7128880000091,319.6968311999808,319.6968311999808,321.16549649997614,,,,,v,1,1.457576800021343,None,Participant 01,001,2025-10-05_00h04.10.706,Motor sequence task,,2025.1.1,59.89236145112884,2025-10-05 00h04.24.179339 +0530,
50,c,29,29,8,c,1,0.4035631999722682,None,,,,,8,29,29,2,321.1814812999801,,321.16600149997976,321.1814812999801,322.1667020000168,322.1667020000168,322.1667020000168,322.1667020000168,322.183567799977,323.1677122999681,323.1677122999681,323.58449570002267,,,,,c,1,0.4035631999722682,None,Participant 01,001,2025-10-05_00h04.10.706,Motor sequence task,,2025.1.1,59.89236145112884,2025-10-05 00h04.24.179339 +0530,
150,v,30,30,9,v,1,0.5497309999773279,None,,,,,9,30,30,1,323.60204389999853,,323.5848725999822,323.60204389999853,324.58613680000417,324.58613680000417,324.58613680000417,324.58613680000417,324.6028229999938,325.5870052999817,325.5870052999817,326.13843039999483,,,,,v,1,0.5497309999773279,None,Participant 01,001,2025-10-05_00h04.10.706,Motor sequence task,,2025.1.1,59.89236145112884,2025-10-05 00h04.24.179339 +0530,
50,c,31,31,9,c,1,0.41994519997388124,None,,,,,9,31,31,2,326.15433920000214,,326.1389536000206,326.15433920000214,327.1386703000171,327.1386703000171,327.1386703000171,327.1386703000171,327.1554322000011,328.1398586999858,328.1398586999858,328.5745266000158,,,,,c,1,0.41994519997388124,None,Participant 01,001,2025-10-05_00h04.10.706,Motor sequence task,,2025.1.1,59.89236145112884,2025-10-05 00h04.24.179339 +0530,
150,v,32,32,10,v,1,0.5423198000062257,None,,,,,10,32,32,1,328.5897559999721,,328.5750352999894,328.5897559999721,329.5745842999895,329.5745842999895,329.5745842999895,329.5745842999895,329.59185289999004,330.57554479996907,330.57554479996907,331.12689790001605,,,,,v,1,0.5423198000062257,None,Participant 01,001,2025-10-05_00h04.10.706,Motor sequence task,,2025.1.1,59.89236145112884,2025-10-05 00h04.24.179339 +0530,
50,c,33,33,10,c,1,0.45207250001840293,None,,,,,10,33,33,2,331.143342699972,,331.1272224999848,331.143342699972,332.12721740000416,332.12721740000416,332.12721740000416,332.12721740000416,332.14416630001506,333.12848359998316,333.12848359998316,333.5958084000158,,,,,c,1,0.45207250001840293,None,Participant 01,001,2025-10-05_00h04.10.706,Motor sequence task,,2025.1.1,59.89236145112884,2025-10-05 00h04.24.179339 +0530,
-50,x,34,34,9,x,1,0.7911905000219122,None,,,,,9,34,34,0,333.61283769999864,,333.59613969997736,333.61283769999864,334.59719659999246,334.59719659999246,334.59719659999246,334.59719659999246,334.6139595999848,335.59805249999044,335.59805249999044,336.39903169998433,,,,,x,1,0.7911905000219122,None,Participant 01,001,2025-10-05_00h04.10.706,Motor sequence task,,2025.1.1,59.89236145112884,2025-10-05 00h04.24.179339 +0530,
150,v,35,35,11,v,1,0.8231639000005089,None,,,,,11,35,35,1,336.4153856000048,,336.399447600008,336.4153856000048,337.39981969998917,337.39981969998917,337.39981969998917,337.39981969998917,337.4160606000223,338.4013370000175,338.4013370000175,339.23573580000084,,,,,v,1,0.8231639000005089,None,Participant 01,001,2025-10-05_00h04.10.706,Motor sequence task,,2025.1.1,59.89236145112884,2025-10-05 00h04.24.179339 +0530,
-150,z,36,36,3,z,1,1.0817758000339381,None,,,,,3,36,36,3,339.252159799973,,339.23604240000714,339.252159799973,340.23613600002136,340.23613600002136,340.23613600002136,340.23613600002136,340.2530332999886,341.2372335999971,341.2372335999971,342.3225046999869,,,,,z,1,1.0817758000339381,None,Participant 01,001,2025-10-05_00h04.10.706,Motor sequence task,,2025.1.1,59.89236145112884,2025-10-05 00h04.24.179339 +0530,
-50,x,37,37,10,x,1,1.471020500001032,None,,,,,10,37,37,0,342.33874560002005,,342.3229190999991,342.33874560002005,343.32271699997364,343.32271699997364,343.32271699997364,343.32271699997364,343.33939859998645,344.32381809997605,344.32381809997605,345.8099982999847,,,,,x,1,1.471020500001032,None,Participant 01,001,2025-10-05_00h04.10.706,Motor sequence task,,2025.1.1,59.89236145112884,2025-10-05 00h04.24.179339 +0530,
50,c,38,38,11,c,1,0.7587519000517204,None,,,,,11,38,38,2,345.8261567999725,,345.81036850000964,345.8261567999725,346.81038709997665,346.81038709997665,346.81038709997665,346.81038709997665,346.8270564000122,347.8110141999787,347.8110141999787,348.5797610000009,,,,,c,1,0.7587519000517204,None,Participant 01,001,2025-10-05_00h04.10.706,Motor sequence task,,2025.1.1,59.89236145112884,2025-10-05 00h04.24.179339 +0530,
-50,x,39,39,11,x,1,0.515547199989669,None,,,,,11,39,39,0,348.59601400000975,,348.5801499999943,348.59601400000975,349.58008159999736,349.58008159999736,349.58008159999736,349.58008159999736,349.5970462000114,350.5802110999939,350.5802110999939,351.0985303000198,,,,,x,1,0.515547199989669,None,Participant 01,001,2025-10-05_00h04.10.706,Motor sequence task,,2025.1.1,59.89236145112884,2025-10-05 00h04.24.179339 +0530,
-150,z,40,40,4,z,1,0.5899270999943838,None,,,,,4,40,40,3,351.1151197999716,,351.0988331999979,351.1151197999716,352.09900410001865,352.09900410001865,352.09900410001865,352.09900410001865,352.115777399973,353.0998989000218,353.0998989000218,353.7014579999959,,,,,z,1,0.5899270999943838,None,Participant 01,001,2025-10-05_00h04.10.706,Motor sequence task,,2025.1.1,59.89236145112884,2025-10-05 00h04.24.179339 +0530,
-150,z,41,41,5,z,1,0.6910874999593943,None,,,,,5,41,41,3,353.71783709997544,,353.70177089999197,353.71783709997544,354.70175730000483,354.70175730000483,354.70175730000483,354.70175730000483,354.7185911000124,355.7030525999726,355.7030525999726,356.404448700021,,,,,z,1,0.6910874999593943,None,Participant 01,001,2025-10-05_00h04.10.706,Motor sequence task,,2025.1.1,59.89236145112884,2025-10-05 00h04.24.179339 +0530,
150,v,42,42,12,v,1,0.5332406000234187,None,,,,,12,42,42,1,356.420558599988,,356.4049836000195,356.420558599988,357.40460800001165,357.40460800001165,357.40460800001165,357.40460800001165,357.421327500022,358.4066332000075,358.4066332000075,358.95700729999226,,,,,v,1,0.5332406000234187,None,Participant 01,001,2025-10-05_00h04.10.706,Motor sequence task,,2025.1.1,59.89236145112884,2025-10-05 00h04.24.179339 +0530,
-50,x,43,43,12,x,1,0.6519458000548184,None,,,,,12,43,43,0,358.9731766000041,,358.9575132000027,358.9731766000041,359.958021599974,359.958021599974,359.958021599974,359.958021599974,359.9753383999923,360.95943599997554,360.95943599997554,361.62679959996603,,,,,x,1,0.6519458000548184,None,Participant 01,001,2025-10-05_00h04.10.706,Motor sequence task,,2025.1.1,59.89236145112884,2025-10-05 00h04.24.179339 +0530,
-150,z,44,44,6,z,1,0.427538399992045,None,,,,,6,44,44,3,361.64348999998765,,361.6271232999861,361.64348999998765,362.62731630000053,362.62731630000053,362.62731630000053,362.62731630000053,362.6440476999851,363.6282589000184,363.6282589000184,364.06351020000875,,,,,z,1,0.427538399992045,None,Participant 01,001,2025-10-05_00h04.10.706,Motor sequence task,,2025.1.1,59.89236145112884,2025-10-05 00h04.24.179339 +0530,
50,c,45,45,12,c,1,0.40503759996499866,None,,,,,12,45,45,2,364.07937009999296,,364.06395989999874,364.07937009999296,365.06327919999603,365.06327919999603,365.06327919999603,365.06327919999603,365.08029199996963,366.0643964000046,366.0643964000046,366.48231719998876,,,,,c,1,0.40503759996499866,None,Participant 01,001,2025-10-05_00h04.10.706,Motor sequence task,,2025.1.1,59.89236145112884,2025-10-05 00h04.24.179339 +0530,
-150,z,46,46,7,z,1,1.2890314999967813,None,,,,,7,46,46,3,366.4986758999876,,366.4826951000141,366.4986758999876,367.48283439996885,367.48283439996885,367.48283439996885,367.48283439996885,367.499871100008,368.4838385999901,368.4838385999901,369.7861673000152,,,,,z,1,1.2890314999967813,None,Participant 01,001,2025-10-05_00h04.10.706,Motor sequence task,,2025.1.1,59.89236145112884,2025-10-05 00h04.24.179339 +0530,
50,c,47,47,13,c,1,0.48758259997703135,None,,,,,13,47,47,2,369.80253679997986,,369.78650589997414,369.80253679997986,370.7868248000159,370.7868248000159,370.7868248000159,370.7868248000159,370.80338539998047,371.78736590000335,371.78736590000335,372.2883700999664,,,,,c,1,0.48758259997703135,None,Participant 01,001,2025-10-05_00h04.10.706,Motor sequence task,,2025.1.1,59.89236145112884,2025-10-05 00h04.24.179339 +0530,
150,v,48,48,13,v,1,0.585850199975539,None,,,,,13,48,48,1,372.3047188000055,,372.2886872999952,372.3047188000055,373.288721000019,373.288721000019,373.288721000019,373.288721000019,373.30552409996744,374.2897908000159,374.2897908000159,374.89121939998586,,,,,v,1,0.585850199975539,None,Participant 01,001,2025-10-05_00h04.10.706,Motor sequence task,,2025.1.1,59.89236145112884,2025-10-05 00h04.24.179339 +0530,
50,c,49,49,14,c,1,0.4899320999975316,None,,,,,14,49,49,2,374.90766789996997,,374.89155030000256,374.90766789996997,375.89189420000184,375.89189420000184,375.89189420000184,375.89189420000184,375.9080607999931,376.89301840000553,376.89301840000553,377.3936183999758,,,,,c,1,0.4899320999975316,None,Participant 01,001,2025-10-05_00h04.10.706,Motor sequence task,,2025.1.1,59.89236145112884,2025-10-05 00h04.24.179339 +0530,
150,v,50,50,14,v,1,0.4233690000255592,None,,,,,14,50,50,1,377.4098465999705,,377.3940193000017,377.4098465999705,378.39520949998405,378.39520949998405,378.39520949998405,378.39520949998405,378.4116604999872,379.3959245000151,379.3959245000151,379.829726499971,,,,,v,1,0.4233690000255592,None,Participant 01,001,2025-10-05_00h04.10.706,Motor sequence task,,2025.1.1,59.89236145112884,2025-10-05 00h04.24.179339 +0530,
150,v,51,51,15,v,1,0.4691564000095241,None,,,,,15,51,51,1,379.84601059998386,,379.8302913000225,379.84601059998386,380.8313130000024,380.8313130000024,380.8313130000024,380.8313130000024,380.84703960001934,381.8321412000223,381.8321412000223,382.31626230000984,,,,,v,1,0.4691564000095241,None,Participant 01,001,2025-10-05_00h04.10.706,Motor sequence task,,2025.1.1,59.89236145112884,2025-10-05 00h04.24.179339 +0530,
-150,z,52,52,8,z,1,0.48979189997771755,None,,,,,8,52,52,3,382.3326642999891,,382.3167614999693,382.3326642999891,383.31647229997907,383.31647229997907,383.31647229997907,383.31647229997907,383.33345199999167,384.3175693000085,384.3175693000085,384.81929319998017,,,,,z,1,0.48979189997771755,None,Participant 01,001,2025-10-05_00h04.10.706,Motor sequence task,,2025.1.1,59.89236145112884,2025-10-05 00h04.24.179339 +0530,
50,c,53,53,15,c,1,0.681982500012964,None,,,,,15,53,53,2,384.8348342999816,,384.81967300002,384.8348342999816,385.8200733999838,385.8200733999838,385.8200733999838,385.8200733999838,385.8374676000094,386.8209929000004,386.8209929000004,387.5057248999947,,,,,c,1,0.681982500012964,None,Participant 01,001,2025-10-05_00h04.10.706,Motor sequence task,,2025.1.1,59.89236145112884,2025-10-05 00h04.24.179339 +0530,
50,c,54,54,16,c,1,0.6349079000065103,None,,,,,16,54,54,2,387.5219563000137,,387.5062352999812,387.5219563000137,388.5057682999759,388.5057682999759,388.5057682999759,388.5057682999759,388.5224966999958,389.50674609997077,389.50674609997077,390.1584213000024,,,,,c,1,0.6349079000065103,None,Participant 01,001,2025-10-05_00h04.10.706,Motor sequence task,,2025.1.1,59.89236145112884,2025-10-05 00h04.24.179339 +0530,
-150,z,55,55,9,z,1,0.439859299978707,None,,,,,9,55,55,3,390.17482720001135,,390.1587256999919,390.17482720001135,391.1590746999718,391.1590746999718,391.1590746999718,391.1590746999718,391.1761130000232,392.15986969997175,392.15986969997175,392.6107295000111,,,,,z,1,0.439859299978707,None,Participant 01,001,2025-10-05_00h04.10.706,Motor sequence task,,2025.1.1,59.89236145112884,2025-10-05 00h04.24.179339 +0530,
50,c,56,56,17,c,1,0.6697889999486506,None,,,,,17,56,56,2,392.6268506000051,,392.61105299997143,392.6268506000051,393.6112417000113,393.6112417000113,393.6112417000113,393.6112417000113,393.62749009998515,394.6129446999985,394.6129446999985,395.29637599998387,,,,,c,1,0.6697889999486506,None,Participant 01,001,2025-10-05_00h04.10.706,Motor sequence task,,2025.1.1,59.89236145112884,2025-10-05 00h04.24.179339 +0530,
50,c,57,57,18,c,1,0.6243079999694601,None,,,,,18,57,57,2,395.31348199996864,,395.29669320001267,395.31348199996864,396.29775819997303,396.29775819997303,396.29775819997303,396.29775819997303,396.3146898999694,397.29866219998803,397.29866219998803,397.9331179999863,,,,,c,1,0.6243079999694601,None,Participant 01,001,2025-10-05_00h04.10.706,Motor sequence task,,2025.1.1,59.89236145112884,2025-10-05 00h04.24.179339 +0530,
-50,x,58,58,13,x,1,1.3620939000393264,None,,,,,13,58,58,0,397.94930560002103,,397.9334977999679,397.94930560002103,398.93458020000253,398.93458020000253,398.93458020000253,398.93458020000253,398.9502586000017,399.93528799997875,399.93528799997875,401.30387960001826,,,,,x,1,1.3620939000393264,None,Participant 01,001,2025-10-05_00h04.10.706,Motor sequence task,,2025.1.1,59.89236145112884,2025-10-05 00h04.24.179339 +0530,
-150,z,59,59,10,z,1,0.39048230001935735,None,,,,,10,59,59,3,401.3202782999724,,401.3042429999914,401.3202782999724,402.3046850999817,402.3046850999817,402.3046850999817,402.3046850999817,402.3205650000018,403.30506410001544,403.30506410001544,403.7060361999902,,,,,z,1,0.39048230001935735,None,Participant 01,001,2025-10-05_00h04.10.706,Motor sequence task,,2025.1.1,59.89236145112884,2025-10-05 00h04.24.179339 +0530,
-150,z,60,60,11,z,1,0.6274511000374332,None,,,,,11,60,60,3,403.72252369998023,,403.706405200006,403.72252369998023,404.70788080000784,404.70788080000784,404.70788080000784,404.70788080000784,404.72340879996773,405.70768310001586,405.70768310001586,406.3428884000168,,,,,z,1,0.6274511000374332,None,Participant 01,001,2025-10-05_00h04.10.706,Motor sequence task,,2025.1.1,59.89236145112884,2025-10-05 00h04.24.179339 +0530,
-150,z,61,61,12,z,1,0.6839232000056654,None,,,,,12,61,61,3,406.35933760000626,,406.3433319000178,406.35933760000626,407.343391900009,407.343391900009,407.343391900009,407.343391900009,407.36017180001363,408.3441026000073,408.3441026000073,409.045569000009,,,,,z,1,0.6839232000056654,None,Participant 01,001,2025-10-05_00h04.10.706,Motor sequence task,,2025.1.1,59.89236145112884,2025-10-05 00h04.24.179339 +0530,
-150,z,62,62,13,z,1,0.8673099000006914,None,,,,,13,62,62,3,409.0618658000021,,409.0459505000035,409.0618658000021,410.0459681000211,410.0459681000211,410.0459681000211,410.0459681000211,410.0627019999665,411.04691580001963,411.04691580001963,411.91496590001043,,,,,z,1,0.8673099000006914,None,Participant 01,001,2025-10-05_00h04.10.706,Motor sequence task,,2025.1.1,59.89236145112884,2025-10-05 00h04.24.179339 +0530,
-150,z,63,63,14,z,1,1.0900695000309497,None,,,,,14,63,63,3,411.9324717000127,,411.91545410000253,411.9324717000127,412.91655979998177,412.91655979998177,412.91655979998177,412.91655979998177,412.9322482999996,413.91718779999064,413.91718779999064,415.01834489998873,,,,,z,1,1.0900695000309497,None,Participant 01,001,2025-10-05_00h04.10.706,Motor sequence task,,2025.1.1,59.89236145112884,2025-10-05 00h04.24.179339 +0530,
150,v,64,64,16,v,1,1.0675998000078835,None,,,,,16,64,64,1,415.0347452000133,,415.0187200999935,415.0347452000133,416.01986150001176,416.01986150001176,416.01986150001176,416.01986150001176,416.035538199998,417.02074529998936,417.02074529998936,418.08941259997664,,,,,v,1,1.0675998000078835,None,Participant 01,001,2025-10-05_00h04.10.706,Motor sequence task,,2025.1.1,59.89236145112884,2025-10-05 00h04.24.179339 +0530,
-50,x,65,65,14,x,1,0.9205149000044912,None,,,,,14,65,65,0,418.1050124000176,,418.0898009999655,418.1050124000176,419.0895753999939,419.0895753999939,419.0895753999939,419.0895753999939,419.10619489999954,420.0904650000157,420.0904650000157,421.0257437999826,,,,,x,1,0.9205149000044912,None,Participant 01,001,2025-10-05_00h04.10.706,Motor sequence task,,2025.1.1,59.89236145112884,2025-10-05 00h04.24.179339 +0530,
150,v,66,66,17,v,1,1.3892911999719217,None,,,,,17,66,66,1,421.04138010001043,,421.0261114999885,421.04138010001043,422.026345100021,422.026345100021,422.026345100021,422.026345100021,422.0432555999723,423.02729240001645,423.02729240001645,424.429339299968,,,,,v,1,1.3892911999719217,None,Participant 01,001,2025-10-05_00h04.10.706,Motor sequence task,,2025.1.1,59.89236145112884,2025-10-05 00h04.24.179339 +0530,
-50,x,67,67,15,x,1,0.9107054999913089,None,,,,,15,67,67,0,424.44571060000453,,424.42982449999545,424.44571060000453,425.4296916999738,425.4296916999738,425.4296916999738,425.4296916999738,425.4463814999908,426.4306504999986,426.4306504999986,427.34911459998693,,,,,x,1,0.9107054999913089,None,Participant 01,001,2025-10-05_00h04.10.706,Motor sequence task,,2025.1.1,59.89236145112884,2025-10-05 00h04.24.179339 +0530,
50,c,68,68,19,c,1,0.6091280999826267,None,,,,,19,68,68,2,427.36553199996706,,427.3495029999758,427.36553199996706,428.3496113999863,428.3496113999863,428.3496113999863,428.3496113999863,428.3662113000173,429.3503132999758,429.3503132999758,429.96811419998994,,,,,c,1,0.6091280999826267,None,Participant 01,001,2025-10-05_00h04.10.706,Motor sequence task,,2025.1.1,59.89236145112884,2025-10-05 00h04.24.179339 +0530,
150,v,69,69,18,v,1,0.9734985000104643,None,,,,,18,69,69,1,429.98504860000685,,429.9685207000002,429.98504860000685,430.9690614999854,430.9690614999854,430.9690614999854,430.9690614999854,430.98598649998894,431.9702086999896,431.9702086999896,432.9547304000007,,,,,v,1,0.9734985000104643,None,Participant 01,001,2025-10-05_00h04.10.706,Motor sequence task,,2025.1.1,59.89236145112884,2025-10-05 00h04.24.179339 +0530,
150,v,70,70,19,v,1,0.5862405999796465,None,,,,,19,70,70,1,432.971159800014,,432.95512020000024,432.971159800014,433.9561892999918,433.9561892999918,433.9561892999918,433.9561892999918,433.97195600002306,434.9571039999719,434.9571039999719,435.55774369998835,,,,,v,1,0.5862405999796465,None,Participant 01,001,2025-10-05_00h04.10.706,Motor sequence task,,2025.1.1,59.89236145112884,2025-10-05 00h04.24.179339 +0530,
-150,z,71,71,15,z,1,1.8520942000322975,None,,,,,15,71,71,3,435.57406810001703,,435.55812559998594,435.57406810001703,436.55889679997927,436.55889679997927,436.55889679997927,436.55889679997927,436.5750352999894,437.55997990001924,437.55997990001924,439.4128718000138,,,,,z,1,1.8520942000322975,None,Participant 01,001,2025-10-05_00h04.10.706,Motor sequence task,,2025.1.1,59.89236145112884,2025-10-05 00h04.24.179339 +0530,
150,v,72,72,20,v,1,0.9158744000014849,None,,,,,20,72,72,1,439.4286615999881,,439.41318480001064,439.4286615999881,440.4126336000045,440.4126336000045,440.4126336000045,440.4126336000045,440.4295674000168,441.4147209000075,441.4147209000075,442.33190799999284,,,,,v,1,0.9158744000014849,None,Participant 01,001,2025-10-05_00h04.10.706,Motor sequence task,,2025.1.1,59.89236145112884,2025-10-05 00h04.24.179339 +0530,
150,v,73,73,21,v,1,0.5467260999721475,None,,,,,21,73,73,1,442.3483623000211,,442.3323073000065,442.3483623000211,443.33242330001667,443.33242330001667,443.33242330001667,443.33242330001667,443.3490814999677,444.33366910001496,444.33366910001496,444.88499089999823,,,,,v,1,0.5467260999721475,None,Participant 01,001,2025-10-05_00h04.10.706,Motor sequence task,,2025.1.1,59.89236145112884,2025-10-05 00h04.24.179339 +0530,
150,v,74,74,22,v,1,0.3845362999709323,None,,,,,22,74,74,1,444.90095250000013,,444.88539319997653,444.90095250000013,445.8849706000183,445.8849706000183,445.8849706000183,445.8849706000183,445.9017431999673,446.8874147000024,446.8874147000024,447.2871836000122,,,,,v,1,0.3845362999709323,None,Participant 01,001,2025-10-05_00h04.10.706,Motor sequence task,,2025.1.1,59.89236145112884,2025-10-05 00h04.24.179339 +0530,
50,c,75,75,20,c,1,0.5741392000345513,None,,,,,20,75,75,2,447.3034904000233,,447.2875157999806,447.3034904000233,448.2876529999776,448.2876529999776,448.2876529999776,448.2876529999776,448.3044062000117,449.2896029999829,449.2896029999829,449.87338309996994,,,,,c,1,0.5741392000345513,None,Participant 01,001,2025-10-05_00h04.10.706,Motor sequence task,,2025.1.1,59.89236145112884,2025-10-05 00h04.24.179339 +0530,
-50,x,76,76,16,x,1,0.5156528000370599,None,,,,,16,76,76,0,449.88963320001494,,449.8737531999941,449.88963320001494,450.87479029997485,450.87479029997485,450.87479029997485,450.87479029997485,450.8909241000074,451.87570330000017,451.87570330000017,452.39361700002337,,,,,x,1,0.5156528000370599,None,Participant 01,001,2025-10-05_00h04.10.706,Motor sequence task,,2025.1.1,59.89236145112884,2025-10-05 00h04.24.179339 +0530,
-150,z,77,77,16,z,1,0.6471812999807298,None,,,,,16,77,77,3,452.4097607000149,,452.39416680001887,452.4097607000149,453.39370419998886,453.39370419998886,453.39370419998886,453.39370419998886,453.4105948000215,454.39519369998015,454.39519369998015,455.045692100015,,,,,z,1,0.6471812999807298,None,Participant 01,001,2025-10-05_00h04.10.706,Motor sequence task,,2025.1.1,59.89236145112884,2025-10-05 00h04.24.179339 +0530,
50,c,78,78,21,c,1,0.8330186999519356,None,,,,,21,78,78,2,455.0621261000051,,455.0460593000171,455.0621261000051,456.0463045000215,456.0463045000215,456.0463045000215,456.0463045000215,456.0629175999784,457.0481386000174,457.0481386000174,457.8825195999816,,,,,c,1,0.8330186999519356,None,Participant 01,001,2025-10-05_00h04.10.706,Motor sequence task,,2025.1.1,59.89236145112884,2025-10-05 00h04.24.179339 +0530,
-150,z,79,79,17,z,1,1.0876631999853998,None,,,,,17,79,79,3,457.8990936999908,,457.8828894000035,457.8990936999908,458.8833159999922,458.8833159999922,458.8833159999922,458.8833159999922,458.89966419996927,459.88403740001377,459.88403740001377,460.98627619998297,,,,,z,1,1.0876631999853998,None,Participant 01,001,2025-10-05_00h04.10.706,Motor sequence task,,2025.1.1,59.89236145112884,2025-10-05 00h04.24.179339 +0530,
-50,x,80,80,17,x,1,0.37211980001302436,None,,,,,17,80,80,0,461.00131680001505,,460.98660409997683,461.00131680001505,461.9864370999858,461.9864370999858,461.9864370999858,461.9864370999858,462.00331130000995,462.9876955000218,462.9876955000218,463.37198290001834,,,,,x,1,0.37211980001302436,None,Participant 01,001,2025-10-05_00h04.10.706,Motor sequence task,,2025.1.1,59.89236145112884,2025-10-05 00h04.24.179339 +0530,
150,v,81,81,23,v,1,0.38404889998491853,None,,,,,23,81,81,1,463.38807069999166,,463.3723904999788,463.38807069999166,464.37217970000347,464.37217970000347,464.37217970000347,464.37217970000347,464.3890790999867,465.3733410999994,465.3733410999994,465.7745662999805,,,,,v,1,0.38404889998491853,None,Participant 01,001,2025-10-05_00h04.10.706,Motor sequence task,,2025.1.1,59.89236145112884,2025-10-05 00h04.24.179339 +0530,
50,c,82,82,22,c,1,0.5928075999836437,None,,,,,22,82,82,2,465.7905629000161,,465.77493830001913,465.7905629000161,466.77488749998156,466.77488749998156,466.77488749998156,466.77488749998156,466.79166099999566,467.7769747999846,467.7769747999846,468.37722540000686,,,,,c,1,0.5928075999836437,None,Participant 01,001,2025-10-05_00h04.10.706,Motor sequence task,,2025.1.1,59.89236145112884,2025-10-05 00h04.24.179339 +0530,
-50,x,83,83,18,x,1,0.5589422999764793,None,,,,,18,83,83,0,468.39343830000143,,468.3776165000163,468.39343830000143,469.3776795999729,469.3776795999729,469.3776795999729,469.3776795999729,469.3944422000204,470.3797519999789,470.3797519999789,470.9465378000168,,,,,x,1,0.5589422999764793,None,Participant 01,001,2025-10-05_00h04.10.706,Motor sequence task,,2025.1.1,59.89236145112884,2025-10-05 00h04.24.179339 +0530,
150,v,84,84,24,v,1,0.5703379999613389,None,,,,,24,84,84,1,470.96328219998395,,470.9468504000106,470.96328219998395,471.94706009997753,471.94706009997753,471.94706009997753,471.94706009997753,471.9638433000073,472.948020300013,472.948020300013,473.5327817000216,,,,,v,1,0.5703379999613389,None,Participant 01,001,2025-10-05_00h04.10.706,Motor sequence task,,2025.1.1,59.89236145112884,2025-10-05 00h04.24.179339 +0530,
-150,z,85,85,18,z,1,1.3258827999816276,None,,,,,18,85,85,3,473.5490826999885,,473.53312360000564,473.5490826999885,474.53354889998445,474.53354889998445,474.53354889998445,474.53354889998445,474.5501246000058,475.53535169997485,475.53535169997485,476.870113699988,,,,,z,1,1.3258827999816276,None,Participant 01,001,2025-10-05_00h04.10.706,Motor sequence task,,2025.1.1,59.89236145112884,2025-10-05 00h04.24.179339 +0530,
-150,z,86,86,19,z,1,0.9748169999802485,None,,,,,19,86,86,3,476.8865702999756,,476.8704173999722,476.8865702999756,477.8705768000218,477.8705768000218,477.8705768000218,477.8705768000218,477.8875054999953,478.8715187999769,478.8715187999769,479.8563760999823,,,,,z,1,0.9748169999802485,None,Participant 01,001,2025-10-05_00h04.10.706,Motor sequence task,,2025.1.1,59.89236145112884,2025-10-05 00h04.24.179339 +0530,
-150,z,87,87,20,z,1,0.7728674999671057,None,,,,,20,87,87,3,479.873554699996,,479.85671129997354,479.873554699996,480.85760260000825,480.85760260000825,480.85760260000825,480.85760260000825,480.87438980001025,481.8585095999879,481.8585095999879,482.6431535999873,,,,,z,1,0.7728674999671057,None,Participant 01,001,2025-10-05_00h04.10.706,Motor sequence task,,2025.1.1,59.89236145112884,2025-10-05 00h04.24.179339 +0530,
-50,x,88,88,19,x,1,0.9258683999651112,None,,,,,19,88,88,0,482.6590647000121,,482.6435337999719,482.6590647000121,483.6442310999846,483.6442310999846,483.6442310999846,483.6442310999846,483.65998409996973,484.6451078999671,484.6451078999671,485.5794162999955,,,,,x,1,0.9258683999651112,None,Participant 01,001,2025-10-05_00h04.10.706,Motor sequence task,,2025.1.1,59.89236145112884,2025-10-05 00h04.24.179339 +0530,
-150,z,89,89,21,z,1,0.6406346000148915,None,,,,,21,89,89,3,485.5954379999894,,485.5798240000149,485.5954379999894,486.579813999997,486.579813999997,486.579813999997,486.579813999997,486.5963437000173,487.58186420000857,487.58186420000857,488.2328242000076,,,,,z,1,0.6406346000148915,None,Participant 01,001,2025-10-05_00h04.10.706,Motor sequence task,,2025.1.1,59.89236145112884,2025-10-05 00h04.24.179339 +0530,
-50,x,90,90,20,x,1,0.60134829999879,None,,,,,20,90,90,0,488.2481225999654,,488.2332358999993,488.2481225999654,489.2329645999707,489.2329645999707,489.2329645999707,489.2329645999707,489.24974319996545,490.23384110000916,490.23384110000916,490.8357211999828,,,,,x,1,0.60134829999879,None,Participant 01,001,2025-10-05_00h04.10.706,Motor sequence task,,2025.1.1,59.89236145112884,2025-10-05 00h04.24.179339 +0530,
-50,x,91,91,21,x,1,0.5956488000229001,None,,,,,21,91,91,0,490.8517542000045,,490.8361060000025,490.8517542000045,491.8362004000228,491.8362004000228,491.8362004000228,491.8362004000228,491.8527202999685,492.8369649000233,492.8369649000233,493.4386598999845,,,,,x,1,0.5956488000229001,None,Participant 01,001,2025-10-05_00h04.10.706,Motor sequence task,,2025.1.1,59.89236145112884,2025-10-05 00h04.24.179339 +0530,
-150,z,92,92,22,z,1,0.6381183000048622,None,,,,,22,92,92,3,493.45472560002236,,493.4391570999869,493.45472560002236,494.43883960001403,494.43883960001403,494.43883960001403,494.43883960001403,494.4556417000131,495.4397549999994,495.4397549999994,496.0918109000195,,,,,z,1,0.6381183000048622,None,Participant 01,001,2025-10-05_00h04.10.706,Motor sequence task,,2025.1.1,59.89236145112884,2025-10-05 00h04.24.179339 +0530,
-50,x,93,93,22,x,1,0.6885096000041813,None,,,,,22,93,93,0,496.1069083000184,,496.09220110002207,496.1069083000184,497.0922257999773,497.0922257999773,497.0922257999773,497.0922257999773,497.1080855000182,498.09306889999425,498.09306889999425,498.79461260000244,,,,,x,1,0.6885096000041813,None,Participant 01,001,2025-10-05_00h04.10.706,Motor sequence task,,2025.1.1,59.89236145112884,2025-10-05 00h04.24.179339 +0530,
-50,x,94,94,23,x,1,0.6679138000472449,None,,,,,23,94,94,0,498.8108046000125,,498.79492299997946,498.8108046000125,499.7950191000127,499.7950191000127,499.7950191000127,499.7950191000127,499.81164059997536,500.7958628999768,500.7958628999768,501.4803499999689,,,,,x,1,0.6679138000472449,None,Participant 01,001,2025-10-05_00h04.10.706,Motor sequence task,,2025.1.1,59.89236145112884,2025-10-05 00h04.24.179339 +0530,
50,c,95,95,23,c,1,0.7541733999969438,None,,,,,23,95,95,2,501.49648919998435,,501.48070249997545,501.49648919998435,502.48084789997665,502.48084789997665,502.48084789997665,502.48084789997665,502.49750060000224,503.4817306000041,503.4817306000041,504.25010649999604,,,,,c,1,0.7541733999969438,None,Participant 01,001,2025-10-05_00h04.10.706,Motor sequence task,,2025.1.1,59.89236145112884,2025-10-05 00h04.24.179339 +0530,
-50,x,96,96,24,x,1,0.821786799991969,None,,,,,24,96,96,0,504.26639770000475,,504.2504177999799,504.26639770000475,505.2505658000009,505.2505658000009,505.2505658000009,505.2505658000009,505.2673253999674,506.2514252999681,506.2514252999681,507.08691640000325,,,,,x,1,0.821786799991969,None,Participant 01,001,2025-10-05_00h04.10.706,Motor sequence task,,2025.1.1,59.89236145112884,2025-10-05 00h04.24.179339 +0530,
50,c,97,97,24,c,1,0.5034160000504926,None,,,,,24,97,97,2,507.1036217000219,,507.0873773000203,507.1036217000219,508.0874716999824,508.0874716999824,508.0874716999824,508.0874716999824,508.10427949996665,509.0881033000187,509.0881033000187,509.6056414999766,,,,,c,1,0.5034160000504926,None,Participant 01,001,2025-10-05_00h04.10.706,Motor sequence task,,2025.1.1,59.89236145112884,2025-10-05 00h04.24.179339 +0530,
-150,z,98,98,23,z,1,0.8759619999909773,None,,,,,23,98,98,3,509.62224190001143,,509.6059609000222,509.62224190001143,510.6062991999788,510.6062991999788,510.6062991999788,510.6062991999788,510.62325449998025,511.60736480000196,511.60736480000196,512.4919798999908,,,,,z,1,0.8759619999909773,None,Participant 01,001,2025-10-05_00h04.10.706,Motor sequence task,,2025.1.1,59.89236145112884,2025-10-05 00h04.24.179339 +0530,
-150,z,99,99,24,z,1,1.3638761000474915,None,,,,,24,99,99,3,512.5083492000122,,512.4922851999872,512.5083492000122,513.4927087000106,513.4927087000106,513.4927087000106,513.4927087000106,513.5094851999893,514.4945666000131,514.4945666000131,515.8633225000231,,,,,z,1,1.3638761000474915,None,Participant 01,001,2025-10-05_00h04.10.706,Motor sequence task,,2025.1.1,59.89236145112884,2025-10-05 00h04.24.179339 +0530,
