thisN,thisTrialN,thisRepN,mouse.x,mouse.y,mouse.leftButton,mouse.midButton,mouse.rightButton,mouse.time,mouse.clicked_name,trials.thisRepN,trials.thisTrialN,trials.thisN,trials.thisIndex,thisRow.t,notes,num_distr,trial.started,fixation.started,Target.started,mouse.started,fixation.stopped,trial.stopped,trials.mouse.x,trials.mouse.y,trials.mouse.leftButton,trials.mouse.midButton,trials.mouse.rightButton,trials.mouse.time,trials.mouse.clicked_name,participant,session,date,expName,expVersion,psychopyVersion,frameRate,expStart,
0,0,0,[np.float64(-0.31)],[np.float64(-0.42833333333333334)],[1],[0],[0],[2.142189199992572],['Target'],0,0,0,0,0.03231329999107402,,5,0.022748199990019202,0.03231329999107402,0.03231329999107402,0.022773399992729537,1.0439344999904279,2.16524919999938,[np.float64(-0.31)],[np.float64(-0.42833333333333334)],[1],[0],[0],[2.142189199992572],['Target'],Participant 5,001,2025-09-30_13h49.18.868,visual search task,,2025.1.1,59.99613625258106,2025-09-30 13h49.33.210576 +0530,
1,0,1,"[np.float64(0.32), np.float64(0.32083333333333336), np.float64(0.32666666666666666)]","[np.float64(-0.25833333333333336), np.float64(-0.2675), np.float64(-0.30416666666666664)]","[1, 1, 1]","[0, 0, 0]","[0, 0, 0]","[1.240176999999676, 1.7249362000002293, 2.5735032000084175]","[None, None, 'Target']",1,0,1,0,2.203307899995707,,10,2.1916472999873804,2.203307899995707,2.203307899995707,0.02621769999677781,3.2130844999919645,4.765362999998615,"[np.float64(0.32), np.float64(0.32083333333333336), np.float64(0.32666666666666666)]","[np.float64(-0.25833333333333336), np.float64(-0.2675), np.float64(-0.30416666666666664)]","[1, 1, 1]","[0, 0, 0]","[0, 0, 0]","[1.240176999999676, 1.7249362000002293, 2.5735032000084175]","[None, None, 'Target']",Participant 5,001,2025-09-30_13h49.18.868,visual search task,,2025.1.1,59.99613625258106,2025-09-30 13h49.33.210576 +0530,
2,0,2,[np.float64(0.4033333333333333)],[np.float64(-0.4575)],[1],[0],[0],[0.9608345000015106],['Target'],2,0,2,0,4.802999199993792,,10,4.7896681999991415,4.802999199993792,4.802999199993792,0.024109699996188283,,5.750749200000428,[np.float64(0.4033333333333333)],[np.float64(-0.4575)],[1],[0],[0],[0.9608345000015106],['Target'],Participant 5,001,2025-09-30_13h49.18.868,visual search task,,2025.1.1,59.99613625258106,2025-09-30 13h49.33.210576 +0530,
3,0,3,[np.float64(0.20166666666666666)],[np.float64(-0.050833333333333335)],[1],[0],[0],[0.8270170999894617],['Target'],3,0,3,0,5.788070299997344,,10,5.77593909999996,5.788070299997344,5.788070299997344,0.024972500003059395,,6.603123599998071,[np.float64(0.20166666666666666)],[np.float64(-0.050833333333333335)],[1],[0],[0],[0.8270170999894617],['Target'],Participant 5,001,2025-09-30_13h49.18.868,visual search task,,2025.1.1,59.99613625258106,2025-09-30 13h49.33.210576 +0530,
4,0,4,[np.float64(0.16666666666666666)],[np.float64(0.4691666666666667)],[1],[0],[0],[1.354161600000225],['Target'],4,0,4,0,6.625725599995349,,5,6.616872999991756,6.625725599995349,6.625725599995349,0.013601099999505095,7.634891900001094,7.971234199998435,[np.float64(0.16666666666666666)],[np.float64(0.4691666666666667)],[1],[0],[0],[1.354161600000225],['Target'],Participant 5,001,2025-09-30_13h49.18.868,visual search task,,2025.1.1,59.99613625258106,2025-09-30 13h49.33.210576 +0530,
5,0,5,"[np.float64(0.105), np.float64(0.11416666666666667)]","[np.float64(-0.10166666666666667), np.float64(-0.09916666666666667)]","[1, 1]","[0, 0]","[0, 0]","[1.1882163999980548, 1.621374599999399]","[None, 'Target']",5,0,5,0,7.991335599988815,,5,7.983487999998033,7.991335599988815,7.991335599988815,0.012131900002714247,9.003154999998515,9.605027300000074,"[np.float64(0.105), np.float64(0.11416666666666667)]","[np.float64(-0.10166666666666667), np.float64(-0.09916666666666667)]","[1, 1]","[0, 0]","[0, 0]","[1.1882163999980548, 1.621374599999399]","[None, 'Target']",Participant 5,001,2025-09-30_13h49.18.868,visual search task,,2025.1.1,59.99613625258106,2025-09-30 13h49.33.210576 +0530,
6,0,6,[np.float64(-0.3958333333333333)],[np.float64(0.43916666666666665)],[1],[0],[0],[1.5868713000090793],['Target'],6,0,6,0,9.629221999988658,,5,9.620053999999072,9.629221999988658,9.629221999988658,0.014888999998220243,10.637714899989078,11.207129599992186,[np.float64(-0.3958333333333333)],[np.float64(0.43916666666666665)],[1],[0],[0],[1.5868713000090793],['Target'],Participant 5,001,2025-09-30_13h49.18.868,visual search task,,2025.1.1,59.99613625258106,2025-09-30 13h49.33.210576 +0530,
7,0,7,[np.float64(-0.1675)],[np.float64(-0.285)],[1],[0],[0],[1.086957200008328],['Target'],7,0,7,0,11.231682400000864,,5,11.221860099991318,11.231682400000864,11.231682400000864,0.01456779999716673,12.239721799996914,12.309017899999162,[np.float64(-0.1675)],[np.float64(-0.285)],[1],[0],[0],[1.086957200008328],['Target'],Participant 5,001,2025-09-30_13h49.18.868,visual search task,,2025.1.1,59.99613625258106,2025-09-30 13h49.33.210576 +0530,
8,0,8,[np.float64(0.4791666666666667)],[np.float64(0.1175)],[1],[0],[0],[1.169762499994249],['Target'],8,0,8,0,12.334151099988958,,5,12.324543499998981,12.334151099988958,12.334151099988958,0.015342300001066178,13.341350099988631,13.494521599990549,[np.float64(0.4791666666666667)],[np.float64(0.1175)],[1],[0],[0],[1.169762499994249],['Target'],Participant 5,001,2025-09-30_13h49.18.868,visual search task,,2025.1.1,59.99613625258106,2025-09-30 13h49.33.210576 +0530,
9,0,9,[np.float64(0.15666666666666668)],[np.float64(0.2825)],[1],[0],[0],[1.001356200009468],['Target'],9,0,9,0,13.518968599993968,,5,13.509680999995908,13.518968599993968,13.518968599993968,0.014966800008551218,14.550816299990402,14.511209999996936,[np.float64(0.15666666666666668)],[np.float64(0.2825)],[1],[0],[0],[1.001356200009468],['Target'],Participant 5,001,2025-09-30_13h49.18.868,visual search task,,2025.1.1,59.99613625258106,2025-09-30 13h49.33.210576 +0530,
10,0,10,"[np.float64(-0.28833333333333333), np.float64(-0.245)]","[np.float64(-0.0875), np.float64(-0.07916666666666666)]","[1, 1]","[0, 0]","[0, 0]","[0.9242230000090785, 1.4400807000056375]","[None, 'Target']",10,0,10,0,14.550816299990402,,10,14.537502199993469,14.550816299990402,14.550816299990402,0.026146200005314313,15.55998429999454,15.977783499998623,"[np.float64(-0.28833333333333333), np.float64(-0.245)]","[np.float64(-0.0875), np.float64(-0.07916666666666666)]","[1, 1]","[0, 0]","[0, 0]","[0.9242230000090785, 1.4400807000056375]","[None, 'Target']",Participant 5,001,2025-09-30_13h49.18.868,visual search task,,2025.1.1,59.99613625258106,2025-09-30 13h49.33.210576 +0530,
11,0,11,[np.float64(-0.2875)],[np.float64(0.4266666666666667)],[1],[0],[0],[1.5108133999892743],['Target'],11,0,11,0,16.0154055999883,,10,16.002174299996113,16.0154055999883,16.0154055999883,0.02413410000735894,17.028940699994564,17.513174799998524,[np.float64(-0.2875)],[np.float64(0.4266666666666667)],[1],[0],[0],[1.5108133999892743],['Target'],Participant 5,001,2025-09-30_13h49.18.868,visual search task,,2025.1.1,59.99613625258106,2025-09-30 13h49.33.210576 +0530,
12,0,12,[np.float64(0.07416666666666667)],[np.float64(0.2175)],[1],[0],[0],[1.0213845999969635],['Target'],12,0,12,0,17.535549499996705,,5,17.52693989999534,17.535549499996705,17.535549499996705,0.013532200013287365,18.54628650000086,18.54847169999266,[np.float64(0.07416666666666667)],[np.float64(0.2175)],[1],[0],[0],[1.0213845999969635],['Target'],Participant 5,001,2025-09-30_13h49.18.868,visual search task,,2025.1.1,59.99613625258106,2025-09-30 13h49.33.210576 +0530,
13,0,13,[np.float64(0.07083333333333333)],[np.float64(-0.2225)],[1],[0],[0],[0.7765424999961397],['Target'],13,0,13,0,18.584626099996967,,10,18.57338419998996,18.584626099996967,18.584626099996967,0.02477099999669008,,19.350105699995765,[np.float64(0.07083333333333333)],[np.float64(-0.2225)],[1],[0],[0],[0.7765424999961397],['Target'],Participant 5,001,2025-09-30_13h49.18.868,visual search task,,2025.1.1,59.99613625258106,2025-09-30 13h49.33.210576 +0530,
14,0,14,[np.float64(0.46)],[np.float64(0.0016666666666666668)],[1],[0],[0],[0.8371558999933768],['Target'],14,0,14,0,19.373250599994208,,5,19.364212000000407,19.373250599994208,19.373250599994208,0.013963999997940846,,20.20158119998814,[np.float64(0.46)],[np.float64(0.0016666666666666668)],[1],[0],[0],[0.8371558999933768],['Target'],Participant 5,001,2025-09-30_13h49.18.868,visual search task,,2025.1.1,59.99613625258106,2025-09-30 13h49.33.210576 +0530,
15,0,15,[np.float64(-0.25416666666666665)],[np.float64(0.005)],[1],[0],[0],[0.9231381999998121],['Target'],15,0,15,0,20.239873099999386,,10,20.228353699989384,20.239873099999386,20.239873099999386,0.026657099995645694,,21.151705399999628,[np.float64(-0.25416666666666665)],[np.float64(0.005)],[1],[0],[0],[0.9231381999998121],['Target'],Participant 5,001,2025-09-30_13h49.18.868,visual search task,,2025.1.1,59.99613625258106,2025-09-30 13h49.33.210576 +0530,
16,0,16,[np.float64(-0.12583333333333332)],[np.float64(0.4075)],[1],[0],[0],[0.8903423000010662],['Target'],16,0,16,0,21.191163299998152,,10,21.178817199994228,21.191163299998152,21.191163299998152,0.026923899989924394,,22.06935629999498,[np.float64(-0.12583333333333332)],[np.float64(0.4075)],[1],[0],[0],[0.8903423000010662],['Target'],Participant 5,001,2025-09-30_13h49.18.868,visual search task,,2025.1.1,59.99613625258106,2025-09-30 13h49.33.210576 +0530,
17,0,17,"[np.float64(-0.44083333333333335), np.float64(-0.4266666666666667)]","[np.float64(-0.43083333333333335), np.float64(-0.43)]","[1, 1]","[0, 0]","[0, 0]","[1.0087982999975793, 1.5255848999950103]","[None, 'Target']",17,0,17,0,22.108005499991123,,10,22.095544099996914,22.108005499991123,22.108005499991123,0.0260126999928616,23.118270099992515,23.62129450000066,"[np.float64(-0.44083333333333335), np.float64(-0.4266666666666667)]","[np.float64(-0.43083333333333335), np.float64(-0.43)]","[1, 1]","[0, 0]","[0, 0]","[1.0087982999975793, 1.5255848999950103]","[None, 'Target']",Participant 5,001,2025-09-30_13h49.18.868,visual search task,,2025.1.1,59.99613625258106,2025-09-30 13h49.33.210576 +0530,
18,0,18,[np.float64(-0.025833333333333333)],[np.float64(-0.3875)],[1],[0],[0],[1.0859382999915397],['Target'],18,0,18,0,23.645419499996933,,5,23.63667879998684,23.645419499996933,23.645419499996933,0.015128899991395883,24.653341999990516,24.722805699988385,[np.float64(-0.025833333333333333)],[np.float64(-0.3875)],[1],[0],[0],[1.0859382999915397],['Target'],Participant 5,001,2025-09-30_13h49.18.868,visual search task,,2025.1.1,59.99613625258106,2025-09-30 13h49.33.210576 +0530,
19,0,19,[np.float64(0.06333333333333334)],[np.float64(-0.030833333333333334)],[1],[0],[0],[0.9872142000094755],['Target'],19,0,19,0,24.744949799991446,,5,24.736050499996054,24.744949799991446,24.744949799991446,0.013111799999023788,,25.723440299989306,[np.float64(0.06333333333333334)],[np.float64(-0.030833333333333334)],[1],[0],[0],[0.9872142000094755],['Target'],Participant 5,001,2025-09-30_13h49.18.868,visual search task,,2025.1.1,59.99613625258106,2025-09-30 13h49.33.210576 +0530,
20,0,20,"[np.float64(0.0925), np.float64(0.11166666666666666)]","[np.float64(0.013333333333333334), np.float64(-0.0008333333333333334)]","[1, 1]","[0, 0]","[0, 0]","[1.736732999997912, 2.3038650000089547]","[None, 'Target']",20,0,20,0,25.746783399998094,,5,25.738545699990937,25.746783399998094,25.746783399998094,0.014925199997378513,26.75569939998968,28.042622299995855,"[np.float64(0.0925), np.float64(0.11166666666666666)]","[np.float64(0.013333333333333334), np.float64(-0.0008333333333333334)]","[1, 1]","[0, 0]","[0, 0]","[1.736732999997912, 2.3038650000089547]","[None, 'Target']",Participant 5,001,2025-09-30_13h49.18.868,visual search task,,2025.1.1,59.99613625258106,2025-09-30 13h49.33.210576 +0530,
21,0,21,[np.float64(-0.09083333333333334)],[np.float64(-0.08416666666666667)],[1],[0],[0],[0.9698937999928603],['Target'],21,0,21,0,28.066179099987494,,5,28.05754139999044,28.066179099987494,28.066179099987494,0.014716600009705871,,29.027664199995343,[np.float64(-0.09083333333333334)],[np.float64(-0.08416666666666667)],[1],[0],[0],[0.9698937999928603],['Target'],Participant 5,001,2025-09-30_13h49.18.868,visual search task,,2025.1.1,59.99613625258106,2025-09-30 13h49.33.210576 +0530,
22,0,22,[np.float64(0.26416666666666666)],[np.float64(0.2841666666666667)],[1],[0],[0],[1.2063206000020728],['Target'],22,0,22,0,29.068682299999637,,10,29.055349899994326,29.068682299999637,29.068682299999637,0.02753199999278877,30.076295499995467,30.2618700999883,[np.float64(0.26416666666666666)],[np.float64(0.2841666666666667)],[1],[0],[0],[1.2063206000020728],['Target'],Participant 5,001,2025-09-30_13h49.18.868,visual search task,,2025.1.1,59.99613625258106,2025-09-30 13h49.33.210576 +0530,
23,0,23,[np.float64(0.3616666666666667)],[np.float64(0.3641666666666667)],[1],[0],[0],[0.9766914999927394],['Target'],23,0,23,0,30.29962859999796,,10,30.286775599990506,30.29962859999796,30.29962859999796,0.024701200003619306,,31.263653699992574,[np.float64(0.3616666666666667)],[np.float64(0.3641666666666667)],[1],[0],[0],[0.9766914999927394],['Target'],Participant 5,001,2025-09-30_13h49.18.868,visual search task,,2025.1.1,59.99613625258106,2025-09-30 13h49.33.210576 +0530,
24,0,24,[np.float64(0.13583333333333333)],[np.float64(-0.10583333333333333)],[1],[0],[0],[1.1929422000102932],['Target'],24,0,24,0,31.300453999996535,,10,31.28845709998859,31.300453999996535,31.300453999996535,0.024595499999122694,32.31212999999116,32.48159379999561,[np.float64(0.13583333333333333)],[np.float64(-0.10583333333333333)],[1],[0],[0],[1.1929422000102932],['Target'],Participant 5,001,2025-09-30_13h49.18.868,visual search task,,2025.1.1,59.99613625258106,2025-09-30 13h49.33.210576 +0530,
25,0,25,[np.float64(0.32166666666666666)],[np.float64(0.25666666666666665)],[1],[0],[0],[1.0099557999928948],['Target'],25,0,25,0,32.51772109999729,,10,32.505684199990355,32.51772109999729,32.51772109999729,0.023843899994972162,33.537368499994045,33.51582089999283,[np.float64(0.32166666666666666)],[np.float64(0.25666666666666665)],[1],[0],[0],[1.0099557999928948],['Target'],Participant 5,001,2025-09-30_13h49.18.868,visual search task,,2025.1.1,59.99613625258106,2025-09-30 13h49.33.210576 +0530,
26,0,26,[np.float64(-0.42)],[np.float64(-0.11333333333333333)],[1],[0],[0],[0.9539419999928214],['Target'],26,0,26,0,33.537368499994045,,5,33.52866969999741,33.537368499994045,33.537368499994045,0.012600900008692406,,34.482793699993636,[np.float64(-0.42)],[np.float64(-0.11333333333333333)],[1],[0],[0],[0.9539419999928214],['Target'],Participant 5,001,2025-09-30_13h49.18.868,visual search task,,2025.1.1,59.99613625258106,2025-09-30 13h49.33.210576 +0530,
27,0,27,[np.float64(0.013333333333333334)],[np.float64(-0.02666666666666667)],[1],[0],[0],[1.6561210999934701],['Target'],27,0,27,0,34.52517929999158,,10,34.5116616999876,34.52517929999158,34.52517929999158,0.028584500003489666,35.531945599999744,36.16802889999235,[np.float64(0.013333333333333334)],[np.float64(-0.02666666666666667)],[1],[0],[0],[1.6561210999934701],['Target'],Participant 5,001,2025-09-30_13h49.18.868,visual search task,,2025.1.1,59.99613625258106,2025-09-30 13h49.33.210576 +0530,
28,0,28,[np.float64(-0.3408333333333333)],[np.float64(-0.25)],[1],[0],[0],[0.9882560999976704],['Target'],28,0,28,0,36.18997969999327,,5,36.181281599987415,36.18997969999327,36.18997969999327,0.013005000000703149,,37.16972189999069,[np.float64(-0.3408333333333333)],[np.float64(-0.25)],[1],[0],[0],[0.9882560999976704],['Target'],Participant 5,001,2025-09-30_13h49.18.868,visual search task,,2025.1.1,59.99613625258106,2025-09-30 13h49.33.210576 +0530,
29,0,29,[np.float64(0.35)],[np.float64(-0.3175)],[1],[0],[0],[1.1226158999925246],['Target'],29,0,29,0,37.20986009998887,,10,37.19754499998817,37.20986009998887,37.20986009998887,0.027653899989672936,38.21821699998691,38.320365599996876,[np.float64(0.35)],[np.float64(-0.3175)],[1],[0],[0],[1.1226158999925246],['Target'],Participant 5,001,2025-09-30_13h49.18.868,visual search task,,2025.1.1,59.99613625258106,2025-09-30 13h49.33.210576 +0530,
30,0,30,[np.float64(0.225)],[np.float64(0.31666666666666665)],[1],[0],[0],[1.0207441999955336],['Target'],30,0,30,0,38.343800899994676,,5,38.334562899995944,38.343800899994676,38.343800899994676,0.014045899995835498,39.3527224999998,39.35551850000047,[np.float64(0.225)],[np.float64(0.31666666666666665)],[1],[0],[0],[1.0207441999955336],['Target'],Participant 5,001,2025-09-30_13h49.18.868,visual search task,,2025.1.1,59.99613625258106,2025-09-30 13h49.33.210576 +0530,
31,0,31,[np.float64(0.035833333333333335)],[np.float64(-0.33)],[1],[0],[0],[1.2086871999927098],['Target'],31,0,31,0,39.39413309999509,,10,39.38130879998789,39.39413309999509,39.39413309999509,0.02562509999552276,40.40416469999764,40.59020099999907,[np.float64(0.035833333333333335)],[np.float64(-0.33)],[1],[0],[0],[1.2086871999927098],['Target'],Participant 5,001,2025-09-30_13h49.18.868,visual search task,,2025.1.1,59.99613625258106,2025-09-30 13h49.33.210576 +0530,
32,0,32,[np.float64(0.11)],[np.float64(0.016666666666666666)],[1],[0],[0],[1.7594575000111945],['Target'],32,0,32,0,40.6275239999959,,10,40.61548509998829,40.6275239999959,40.6275239999959,0.02510220000112895,41.63890039999387,42.375124899990624,[np.float64(0.11)],[np.float64(0.016666666666666666)],[1],[0],[0],[1.7594575000111945],['Target'],Participant 5,001,2025-09-30_13h49.18.868,visual search task,,2025.1.1,59.99613625258106,2025-09-30 13h49.33.210576 +0530,
33,0,33,[np.float64(0.0825)],[np.float64(-0.4891666666666667)],[1],[0],[0],[1.089381300000241],['Target'],33,0,33,0,42.414158499988844,,10,42.40286329999799,42.414158499988844,42.414158499988844,0.027544999989913777,43.42389619999449,43.49249289999716,[np.float64(0.0825)],[np.float64(-0.4891666666666667)],[1],[0],[0],[1.089381300000241],['Target'],Participant 5,001,2025-09-30_13h49.18.868,visual search task,,2025.1.1,59.99613625258106,2025-09-30 13h49.33.210576 +0530,
34,0,34,"[np.float64(-0.05583333333333333), np.float64(-0.05583333333333333), np.float64(-0.05583333333333333), np.float64(-0.0675)]","[np.float64(-0.08916666666666667), np.float64(-0.08916666666666667), np.float64(-0.08916666666666667), np.float64(-0.07916666666666666)]","[1, 1, 1, 1]","[0, 0, 0, 0]","[0, 0, 0, 0]","[0.8712355999887222, 1.3708398000017041, 1.8551627999986522, 2.455584600000293]","[None, None, None, 'Target']",34,0,34,0,43.51607549999608,,5,43.50676720000047,43.51607549999608,43.51607549999608,0.014053299993975088,44.525133199989796,45.9625675999996,"[np.float64(-0.05583333333333333), np.float64(-0.05583333333333333), np.float64(-0.05583333333333333), np.float64(-0.0675)]","[np.float64(-0.08916666666666667), np.float64(-0.08916666666666667), np.float64(-0.08916666666666667), np.float64(-0.07916666666666666)]","[1, 1, 1, 1]","[0, 0, 0, 0]","[0, 0, 0, 0]","[0.8712355999887222, 1.3708398000017041, 1.8551627999986522, 2.455584600000293]","[None, None, None, 'Target']",Participant 5,001,2025-09-30_13h49.18.868,visual search task,,2025.1.1,59.99613625258106,2025-09-30 13h49.33.210576 +0530,
35,0,35,[np.float64(0.35333333333333333)],[np.float64(-0.38)],[1],[0],[0],[0.9896709000022383],['Target'],35,0,35,0,46.00319939998735,,10,45.9914182999928,46.00319939998735,46.00319939998735,0.028501299995696172,,46.98128480000014,[np.float64(0.35333333333333333)],[np.float64(-0.38)],[1],[0],[0],[0.9896709000022383],['Target'],Participant 5,001,2025-09-30_13h49.18.868,visual search task,,2025.1.1,59.99613625258106,2025-09-30 13h49.33.210576 +0530,
36,0,36,[np.float64(-0.18833333333333332)],[np.float64(0.3333333333333333)],[1],[0],[0],[1.7877145999955246],['Target'],36,0,36,0,47.02392979999422,,10,47.01071029999002,47.02392979999422,47.02392979999422,0.029200099990703166,48.02864089999639,48.79861559999699,[np.float64(-0.18833333333333332)],[np.float64(0.3333333333333333)],[1],[0],[0],[1.7877145999955246],['Target'],Participant 5,001,2025-09-30_13h49.18.868,visual search task,,2025.1.1,59.99613625258106,2025-09-30 13h49.33.210576 +0530,
37,0,37,[np.float64(0.2833333333333333)],[np.float64(0.49166666666666664)],[1],[0],[0],[2.275026000002981],['Target'],37,0,37,0,48.83830079999461,,10,48.826287999996566,48.83830079999461,48.83830079999461,0.027492400011396967,49.847885600000154,51.1014995000005,[np.float64(0.2833333333333333)],[np.float64(0.49166666666666664)],[1],[0],[0],[2.275026000002981],['Target'],Participant 5,001,2025-09-30_13h49.18.868,visual search task,,2025.1.1,59.99613625258106,2025-09-30 13h49.33.210576 +0530,
38,0,38,[np.float64(-0.3616666666666667)],[np.float64(-0.12)],[1],[0],[0],[0.9037534999952186],['Target'],38,0,38,0,51.12370839998766,,5,51.115883999998914,51.12370839998766,51.12370839998766,0.014168100009555928,,52.01982560000033,[np.float64(-0.3616666666666667)],[np.float64(-0.12)],[1],[0],[0],[0.9037534999952186],['Target'],Participant 5,001,2025-09-30_13h49.18.868,visual search task,,2025.1.1,59.99613625258106,2025-09-30 13h49.33.210576 +0530,
39,0,39,[np.float64(-0.3883333333333333)],[np.float64(0.37)],[1],[0],[0],[1.0085728999983985],['Target'],39,0,39,0,52.05588739999803,,10,52.044662100001005,52.05588739999803,52.05588739999803,0.024672699990333058,53.08144439999887,53.05340799999249,[np.float64(-0.3883333333333333)],[np.float64(0.37)],[1],[0],[0],[1.0085728999983985],['Target'],Participant 5,001,2025-09-30_13h49.18.868,visual search task,,2025.1.1,59.99613625258106,2025-09-30 13h49.33.210576 +0530,
40,0,40,[np.float64(0.1)],[np.float64(-0.16583333333333333)],[1],[0],[0],[1.0680384000006597],['Target'],40,0,40,0,53.08144439999887,,5,53.07030229999509,53.08144439999887,53.08144439999887,0.01655600000231061,54.085966099999496,54.13855679999688,[np.float64(0.1)],[np.float64(-0.16583333333333333)],[1],[0],[0],[1.0680384000006597],['Target'],Participant 5,001,2025-09-30_13h49.18.868,visual search task,,2025.1.1,59.99613625258106,2025-09-30 13h49.33.210576 +0530,
41,0,41,[np.float64(0.4083333333333333)],[np.float64(0.14166666666666666)],[1],[0],[0],[0.7349543000018457],['Target'],41,0,41,0,54.16261869999289,,5,54.15369509998709,54.16261869999289,54.16261869999289,0.014953400008380413,,54.88886479999928,[np.float64(0.4083333333333333)],[np.float64(0.14166666666666666)],[1],[0],[0],[0.7349543000018457],['Target'],Participant 5,001,2025-09-30_13h49.18.868,visual search task,,2025.1.1,59.99613625258106,2025-09-30 13h49.33.210576 +0530,
42,0,42,"[np.float64(0.18916666666666668), np.float64(0.19333333333333333), np.float64(0.20083333333333334)]","[np.float64(-0.43916666666666665), np.float64(-0.4425), np.float64(-0.45)]","[1, 1, 1]","[0, 0, 0]","[0, 0, 0]","[1.3861714000086067, 1.8360639000020456, 2.3041931000043405]","[None, None, 'Target']",42,0,42,0,54.91292399998929,,5,54.903711799997836,54.91292399998929,54.91292399998929,0.014675200000056066,55.922678199989605,57.20810099999653,"[np.float64(0.18916666666666668), np.float64(0.19333333333333333), np.float64(0.20083333333333334)]","[np.float64(-0.43916666666666665), np.float64(-0.4425), np.float64(-0.45)]","[1, 1, 1]","[0, 0, 0]","[0, 0, 0]","[1.3861714000086067, 1.8360639000020456, 2.3041931000043405]","[None, None, 'Target']",Participant 5,001,2025-09-30_13h49.18.868,visual search task,,2025.1.1,59.99613625258106,2025-09-30 13h49.33.210576 +0530,
43,0,43,[np.float64(0.3416666666666667)],[np.float64(-0.03166666666666667)],[1],[0],[0],[0.8710486000054516],['Target'],43,0,43,0,57.247704999987036,,10,57.23681419999048,57.247704999987036,57.247704999987036,0.028470899997046217,,58.10808399999223,[np.float64(0.3416666666666667)],[np.float64(-0.03166666666666667)],[1],[0],[0],[0.8710486000054516],['Target'],Participant 5,001,2025-09-30_13h49.18.868,visual search task,,2025.1.1,59.99613625258106,2025-09-30 13h49.33.210576 +0530,
44,0,44,[np.float64(-0.47)],[np.float64(-0.03916666666666667)],[1],[0],[0],[1.0904563999938546],['Target'],44,0,44,0,58.12815459999547,,5,58.12008709998918,58.12815459999547,58.12815459999547,0.011750099991331808,59.1412333999906,59.21071869999287,[np.float64(-0.47)],[np.float64(-0.03916666666666667)],[1],[0],[0],[1.0904563999938546],['Target'],Participant 5,001,2025-09-30_13h49.18.868,visual search task,,2025.1.1,59.99613625258106,2025-09-30 13h49.33.210576 +0530,
45,0,45,[np.float64(-0.25166666666666665)],[np.float64(-0.235)],[1],[0],[0],[0.8026695000007749],['Target'],45,0,45,0,59.23396289999073,,5,59.224891499994555,59.23396289999073,59.23396289999073,0.013996499998029321,,60.02774039999349,[np.float64(-0.25166666666666665)],[np.float64(-0.235)],[1],[0],[0],[0.8026695000007749],['Target'],Participant 5,001,2025-09-30_13h49.18.868,visual search task,,2025.1.1,59.99613625258106,2025-09-30 13h49.33.210576 +0530,
46,0,46,[np.float64(0.13166666666666665)],[np.float64(-0.4091666666666667)],[1],[0],[0],[0.890221300011035],['Target'],46,0,46,0,60.06969199999003,,10,60.05605429998832,60.06969199999003,60.06969199999003,0.028149000005214475,,60.9464994000009,[np.float64(0.13166666666666665)],[np.float64(-0.4091666666666667)],[1],[0],[0],[0.890221300011035],['Target'],Participant 5,001,2025-09-30_13h49.18.868,visual search task,,2025.1.1,59.99613625258106,2025-09-30 13h49.33.210576 +0530,
47,0,47,"[np.float64(-0.16583333333333333), np.float64(-0.155)]","[np.float64(0.12083333333333333), np.float64(0.115)]","[1, 1]","[0, 0]","[0, 0]","[1.121255400008522, 1.588806800005841]","[None, 'Target']",47,0,47,0,60.987816799999564,,10,60.97559229999024,60.987816799999564,60.987816799999564,0.02888850000454113,61.99401929999294,62.564709399986896,"[np.float64(-0.16583333333333333), np.float64(-0.155)]","[np.float64(0.12083333333333333), np.float64(0.115)]","[1, 1]","[0, 0]","[0, 0]","[1.121255400008522, 1.588806800005841]","[None, 'Target']",Participant 5,001,2025-09-30_13h49.18.868,visual search task,,2025.1.1,59.99613625258106,2025-09-30 13h49.33.210576 +0530,
48,0,48,[np.float64(0.2025)],[np.float64(-0.18666666666666668)],[1],[0],[0],[1.0062143000104697],['Target'],48,0,48,0,62.60438269999577,,10,62.59129409999878,62.60438269999577,62.60438269999577,0.026273700001183897,63.63482939999085,63.59770129999379,[np.float64(0.2025)],[np.float64(-0.18666666666666668)],[1],[0],[0],[1.0062143000104697],['Target'],Participant 5,001,2025-09-30_13h49.18.868,visual search task,,2025.1.1,59.99613625258106,2025-09-30 13h49.33.210576 +0530,
49,0,49,[np.float64(0.23583333333333334)],[np.float64(-0.13416666666666666)],[1],[0],[0],[0.8942499999975553],['Target'],49,0,49,0,63.63482939999085,,10,63.6217988999997,63.63482939999085,63.63482939999085,0.02389229999971576,,64.516237799995,[np.float64(0.23583333333333334)],[np.float64(-0.13416666666666666)],[1],[0],[0],[0.8942499999975553],['Target'],Participant 5,001,2025-09-30_13h49.18.868,visual search task,,2025.1.1,59.99613625258106,2025-09-30 13h49.33.210576 +0530,
50,0,50,[np.float64(-0.07416666666666667)],[np.float64(0.2783333333333333)],[1],[0],[0],[1.2068713000044227],['Target'],50,0,50,0,64.55571249999048,,10,64.54387989999668,64.55571249999048,64.55571249999048,0.027464400001917966,65.56524579999677,65.750982499987,[np.float64(-0.07416666666666667)],[np.float64(0.2783333333333333)],[1],[0],[0],[1.2068713000044227],['Target'],Participant 5,001,2025-09-30_13h49.18.868,visual search task,,2025.1.1,59.99613625258106,2025-09-30 13h49.33.210576 +0530,
51,0,51,[np.float64(-0.09083333333333334)],[np.float64(0.2783333333333333)],[1],[0],[0],[0.7688761000026716],['Target'],51,0,51,0,65.77417399999104,,5,65.76589599999716,65.77417399999104,65.77417399999104,0.014676400009193458,,66.53497219999554,[np.float64(-0.09083333333333334)],[np.float64(0.2783333333333333)],[1],[0],[0],[0.7688761000026716],['Target'],Participant 5,001,2025-09-30_13h49.18.868,visual search task,,2025.1.1,59.99613625258106,2025-09-30 13h49.33.210576 +0530,
52,0,52,[np.float64(-0.20166666666666666)],[np.float64(0.39416666666666667)],[1],[0],[0],[0.7741403999971226],['Target'],52,0,52,0,66.57313299999805,,10,66.56228539999574,66.57313299999805,66.57313299999805,0.02716899999359157,,67.33662209998874,[np.float64(-0.20166666666666666)],[np.float64(0.39416666666666667)],[1],[0],[0],[0.7741403999971226],['Target'],Participant 5,001,2025-09-30_13h49.18.868,visual search task,,2025.1.1,59.99613625258106,2025-09-30 13h49.33.210576 +0530,
53,0,53,[np.float64(0.12333333333333334)],[np.float64(0.15666666666666668)],[1],[0],[0],[0.8569398999970872],['Target'],53,0,53,0,67.37626399999135,,10,67.36341189999075,67.37626399999135,67.37626399999135,0.02665099999285303,,68.22055899999395,[np.float64(0.12333333333333334)],[np.float64(0.15666666666666668)],[1],[0],[0],[0.8569398999970872],['Target'],Participant 5,001,2025-09-30_13h49.18.868,visual search task,,2025.1.1,59.99613625258106,2025-09-30 13h49.33.210576 +0530,
54,0,54,"[np.float64(0.235), np.float64(0.26166666666666666)]","[np.float64(0.17333333333333334), np.float64(0.17416666666666666)]","[1, 1]","[0, 0]","[0, 0]","[0.7019089999957941, 1.3356721999880392]","[None, 'Target']",54,0,54,0,68.2441017999954,,5,68.23527299999841,68.2441017999954,68.2441017999954,0.014544300007401034,69.25188729999354,69.57110409998859,"[np.float64(0.235), np.float64(0.26166666666666666)]","[np.float64(0.17333333333333334), np.float64(0.17416666666666666)]","[1, 1]","[0, 0]","[0, 0]","[0.7019089999957941, 1.3356721999880392]","[None, 'Target']",Participant 5,001,2025-09-30_13h49.18.868,visual search task,,2025.1.1,59.99613625258106,2025-09-30 13h49.33.210576 +0530,
55,0,55,[np.float64(-0.09)],[np.float64(0.16666666666666666)],[1],[0],[0],[0.775058999992325],['Target'],55,0,55,0,69.60932239999238,,10,69.59771429999091,69.60932239999238,69.60932239999238,0.02645850001135841,,70.373001999993,[np.float64(-0.09)],[np.float64(0.16666666666666666)],[1],[0],[0],[0.775058999992325],['Target'],Participant 5,001,2025-09-30_13h49.18.868,visual search task,,2025.1.1,59.99613625258106,2025-09-30 13h49.33.210576 +0530,
56,0,56,[np.float64(-0.4866666666666667)],[np.float64(-0.325)],[1],[0],[0],[1.1027699000114808],['Target'],56,0,56,0,70.39678509999067,,5,70.38760109999566,70.39678509999067,70.39678509999067,0.014365600000019185,71.4045766999916,71.49056789999304,[np.float64(-0.4866666666666667)],[np.float64(-0.325)],[1],[0],[0],[1.1027699000114808],['Target'],Participant 5,001,2025-09-30_13h49.18.868,visual search task,,2025.1.1,59.99613625258106,2025-09-30 13h49.33.210576 +0530,
57,0,57,[np.float64(0.2966666666666667)],[np.float64(0.14416666666666667)],[1],[0],[0],[1.2695278000028338],['Target'],57,0,57,0,71.51510099999723,,5,71.50566169999365,71.51510099999723,71.51510099999723,0.014932700010831468,72.52248959999997,72.77538899998763,[np.float64(0.2966666666666667)],[np.float64(0.14416666666666667)],[1],[0],[0],[1.2695278000028338],['Target'],Participant 5,001,2025-09-30_13h49.18.868,visual search task,,2025.1.1,59.99613625258106,2025-09-30 13h49.33.210576 +0530,
58,0,58,[np.float64(-0.21083333333333334)],[np.float64(0.37416666666666665)],[1],[0],[0],[0.9564003999985289],['Target'],58,0,58,0,72.81628169999749,,10,72.80302089999896,72.81628169999749,72.81628169999749,0.02745880000293255,,73.75965309998719,[np.float64(-0.21083333333333334)],[np.float64(0.37416666666666665)],[1],[0],[0],[0.9564003999985289],['Target'],Participant 5,001,2025-09-30_13h49.18.868,visual search task,,2025.1.1,59.99613625258106,2025-09-30 13h49.33.210576 +0530,
59,0,59,[np.float64(0.07)],[np.float64(-0.2808333333333333)],[1],[0],[0],[1.1254460999916773],['Target'],59,0,59,0,73.79793580000114,,10,73.78500689999782,73.79793580000114,73.79793580000114,0.02513840000028722,74.80830949998926,74.91061919998901,[np.float64(0.07)],[np.float64(-0.2808333333333333)],[1],[0],[0],[1.1254460999916773],['Target'],Participant 5,001,2025-09-30_13h49.18.868,visual search task,,2025.1.1,59.99613625258106,2025-09-30 13h49.33.210576 +0530,
60,0,60,[np.float64(-0.12916666666666668)],[np.float64(0.17916666666666667)],[1],[0],[0],[0.9926303000102052],['Target'],60,0,60,0,74.94977909998852,,10,74.93678910000017,74.94977909998852,74.94977909998852,0.025984099993365817,,75.92961819999618,[np.float64(-0.12916666666666668)],[np.float64(0.17916666666666667)],[1],[0],[0],[0.9926303000102052],['Target'],Participant 5,001,2025-09-30_13h49.18.868,visual search task,,2025.1.1,59.99613625258106,2025-09-30 13h49.33.210576 +0530,
61,0,61,[np.float64(0.20083333333333334)],[np.float64(0.06583333333333333)],[1],[0],[0],[1.2732334000029368],['Target'],61,0,61,0,75.96866499999305,,10,75.95675239998673,75.96866499999305,75.96866499999305,0.026891000001342036,76.97771120000107,77.23016110000026,[np.float64(0.20083333333333334)],[np.float64(0.06583333333333333)],[1],[0],[0],[1.2732334000029368],['Target'],Participant 5,001,2025-09-30_13h49.18.868,visual search task,,2025.1.1,59.99613625258106,2025-09-30 13h49.33.210576 +0530,
62,0,62,[np.float64(-0.19666666666666666)],[np.float64(0.405)],[1],[0],[0],[1.0060973000072408],['Target'],62,0,62,0,77.27118509999127,,10,77.25851780000085,77.27118509999127,77.27118509999127,0.028218899999046698,78.30162339999515,78.26483970000118,[np.float64(-0.19666666666666666)],[np.float64(0.405)],[1],[0],[0],[1.0060973000072408],['Target'],Participant 5,001,2025-09-30_13h49.18.868,visual search task,,2025.1.1,59.99613625258106,2025-09-30 13h49.33.210576 +0530,
63,0,63,[np.float64(-0.021666666666666667)],[np.float64(-0.265)],[1],[0],[0],[1.2092884000012418],['Target'],63,0,63,0,78.30162339999515,,10,78.29019499999413,78.30162339999515,78.30162339999515,0.02520129999902565,79.31336629998987,79.4996911999915,[np.float64(-0.021666666666666667)],[np.float64(-0.265)],[1],[0],[0],[1.2092884000012418],['Target'],Participant 5,001,2025-09-30_13h49.18.868,visual search task,,2025.1.1,59.99613625258106,2025-09-30 13h49.33.210576 +0530,
64,0,64,[np.float64(-0.17583333333333334)],[np.float64(0.06666666666666667)],[1],[0],[0],[0.9232361999893328],['Target'],64,0,64,0,79.54019400000107,,10,79.52715769999486,79.54019400000107,79.54019400000107,0.0273280999972485,,80.45058659999631,[np.float64(-0.17583333333333334)],[np.float64(0.06666666666666667)],[1],[0],[0],[0.9232361999893328],['Target'],Participant 5,001,2025-09-30_13h49.18.868,visual search task,,2025.1.1,59.99613625258106,2025-09-30 13h49.33.210576 +0530,
65,0,65,[np.float64(-0.33916666666666667)],[np.float64(-0.49083333333333334)],[1],[0],[0],[1.3576278000109596],['Target'],65,0,65,0,80.49073999999382,,10,80.47786099999212,80.49073999999382,80.49073999999382,0.02710530000331346,81.49885530000029,81.83568169998762,[np.float64(-0.33916666666666667)],[np.float64(-0.49083333333333334)],[1],[0],[0],[1.3576278000109596],['Target'],Participant 5,001,2025-09-30_13h49.18.868,visual search task,,2025.1.1,59.99613625258106,2025-09-30 13h49.33.210576 +0530,
66,0,66,[np.float64(-0.37916666666666665)],[np.float64(0.3)],[1],[0],[0],[0.8880056999914814],['Target'],66,0,66,0,81.85851709998678,,5,81.8491279000009,81.85851709998678,81.85851709998678,0.01329509999777656,,82.73734559999139,[np.float64(-0.37916666666666665)],[np.float64(0.3)],[1],[0],[0],[0.8880056999914814],['Target'],Participant 5,001,2025-09-30_13h49.18.868,visual search task,,2025.1.1,59.99613625258106,2025-09-30 13h49.33.210576 +0530,
67,0,67,"[np.float64(0.07166666666666667), np.float64(0.0775), np.float64(0.08416666666666667)]","[np.float64(-0.24916666666666668), np.float64(-0.2525), np.float64(-0.25833333333333336)]","[1, 1, 1]","[0, 0, 0]","[0, 0, 0]","[1.0725551000068663, 1.5228981000109343, 2.007144800008973]","[None, None, 'Target']",67,0,67,0,82.77852239999629,,10,82.7646046000009,82.77852239999629,82.77852239999629,0.027120700004161336,83.7847488999978,84.77197389998764,"[np.float64(0.07166666666666667), np.float64(0.0775), np.float64(0.08416666666666667)]","[np.float64(-0.24916666666666668), np.float64(-0.2525), np.float64(-0.25833333333333336)]","[1, 1, 1]","[0, 0, 0]","[0, 0, 0]","[1.0725551000068663, 1.5228981000109343, 2.007144800008973]","[None, None, 'Target']",Participant 5,001,2025-09-30_13h49.18.868,visual search task,,2025.1.1,59.99613625258106,2025-09-30 13h49.33.210576 +0530,
68,0,68,[np.float64(0.0525)],[np.float64(0.08583333333333333)],[1],[0],[0],[0.8360885000001872],['Target'],68,0,68,0,84.79518229998939,,5,84.7865935999871,84.79518229998939,84.79518229998939,0.01437679999799002,,85.6228870999912,[np.float64(0.0525)],[np.float64(0.08583333333333333)],[1],[0],[0],[0.8360885000001872],['Target'],Participant 5,001,2025-09-30_13h49.18.868,visual search task,,2025.1.1,59.99613625258106,2025-09-30 13h49.33.210576 +0530,
69,0,69,[np.float64(0.13)],[np.float64(0.11083333333333334)],[1],[0],[0],[0.7026764000038384],['Target'],69,0,69,0,85.64611869999499,,5,85.63818929999252,85.64611869999499,85.64611869999499,0.015185500000370666,,86.34106999999494,[np.float64(0.13)],[np.float64(0.11083333333333334)],[1],[0],[0],[0.7026764000038384],['Target'],Participant 5,001,2025-09-30_13h49.18.868,visual search task,,2025.1.1,59.99613625258106,2025-09-30 13h49.33.210576 +0530,
70,0,70,[np.float64(-0.08333333333333333)],[np.float64(0.11833333333333333)],[1],[0],[0],[0.8357096999970963],['Target'],70,0,70,0,86.3651291999995,,5,86.35537169998861,86.3651291999995,86.3651291999995,0.014146000001346692,,87.19129399998928,[np.float64(-0.08333333333333333)],[np.float64(0.11833333333333333)],[1],[0],[0],[0.8357096999970963],['Target'],Participant 5,001,2025-09-30_13h49.18.868,visual search task,,2025.1.1,59.99613625258106,2025-09-30 13h49.33.210576 +0530,
71,0,71,[np.float64(0.4525)],[np.float64(0.23)],[1],[0],[0],[1.072513799997978],['Target'],71,0,71,0,87.230475999997,,10,87.21912289998727,87.230475999997,87.230475999997,0.027638800005661324,88.23965939998743,88.29181329999119,[np.float64(0.4525)],[np.float64(0.23)],[1],[0],[0],[1.072513799997978],['Target'],Participant 5,001,2025-09-30_13h49.18.868,visual search task,,2025.1.1,59.99613625258106,2025-09-30 13h49.33.210576 +0530,
72,0,72,"[np.float64(0.31), np.float64(0.31)]","[np.float64(-0.2775), np.float64(-0.2975)]","[1, 1]","[0, 0]","[0, 0]","[1.1064180999965174, 1.6071533000067575]","[None, 'Target']",72,0,72,0,88.31173119999585,,5,88.3035441999964,88.31173119999585,88.31173119999585,0.011561099992832169,89.32434839999769,89.9109036999871,"[np.float64(0.31), np.float64(0.31)]","[np.float64(-0.2775), np.float64(-0.2975)]","[1, 1]","[0, 0]","[0, 0]","[1.1064180999965174, 1.6071533000067575]","[None, 'Target']",Participant 5,001,2025-09-30_13h49.18.868,visual search task,,2025.1.1,59.99613625258106,2025-09-30 13h49.33.210576 +0530,
73,0,73,"[np.float64(-0.3408333333333333), np.float64(-0.36916666666666664)]","[np.float64(0.16666666666666666), np.float64(0.17416666666666666)]","[1, 1]","[0, 0]","[0, 0]","[1.1544228999991901, 1.6549387999984901]","[None, 'Target']",73,0,73,0,89.93316269999195,,5,89.92367619999277,89.93316269999195,89.93316269999195,0.012626199997612275,90.94290429999819,91.57885079999687,"[np.float64(-0.3408333333333333), np.float64(-0.36916666666666664)]","[np.float64(0.16666666666666666), np.float64(0.17416666666666666)]","[1, 1]","[0, 0]","[0, 0]","[1.1544228999991901, 1.6549387999984901]","[None, 'Target']",Participant 5,001,2025-09-30_13h49.18.868,visual search task,,2025.1.1,59.99613625258106,2025-09-30 13h49.33.210576 +0530,
74,0,74,"[np.float64(-0.0325), np.float64(-0.09333333333333334), np.float64(-0.09583333333333334), np.float64(-0.10583333333333333)]","[np.float64(-0.1275), np.float64(-0.32166666666666666), np.float64(-0.32166666666666666), np.float64(-0.32166666666666666)]","[1, 1, 1, 1]","[0, 0, 0, 0]","[0, 0, 0, 0]","[0.8536897999874782, 2.0223627999948803, 2.5219259000004968, 3.089643499988597]","[None, None, None, 'Target']",74,0,74,0,91.60162129999662,,5,91.59284339999431,91.60162129999662,91.60162129999662,0.01380030000291299,92.61149349999323,94.6827392999985,"[np.float64(-0.0325), np.float64(-0.09333333333333334), np.float64(-0.09583333333333334), np.float64(-0.10583333333333333)]","[np.float64(-0.1275), np.float64(-0.32166666666666666), np.float64(-0.32166666666666666), np.float64(-0.32166666666666666)]","[1, 1, 1, 1]","[0, 0, 0, 0]","[0, 0, 0, 0]","[0.8536897999874782, 2.0223627999948803, 2.5219259000004968, 3.089643499988597]","[None, None, None, 'Target']",Participant 5,001,2025-09-30_13h49.18.868,visual search task,,2025.1.1,59.99613625258106,2025-09-30 13h49.33.210576 +0530,
75,0,75,"[np.float64(-0.45916666666666667), np.float64(-0.44583333333333336)]","[np.float64(-0.11083333333333334), np.float64(-0.12416666666666666)]","[1, 1]","[0, 0]","[0, 0]","[0.808634399989387, 1.3259026000014273]","[None, 'Target']",75,0,75,0,94.72017469999264,,10,94.70807419999619,94.72017469999264,94.72017469999264,0.02504870000120718,95.73122679999506,96.03416009999637,"[np.float64(-0.45916666666666667), np.float64(-0.44583333333333336)]","[np.float64(-0.11083333333333334), np.float64(-0.12416666666666666)]","[1, 1]","[0, 0]","[0, 0]","[0.808634399989387, 1.3259026000014273]","[None, 'Target']",Participant 5,001,2025-09-30_13h49.18.868,visual search task,,2025.1.1,59.99613625258106,2025-09-30 13h49.33.210576 +0530,
76,0,76,[np.float64(-0.3016666666666667)],[np.float64(-0.31666666666666665)],[1],[0],[0],[1.2234980999928666],['Target'],76,0,76,0,96.07453759999771,,10,96.06254709999484,96.07453759999771,96.07453759999771,0.028173200000310317,97.0830253999884,97.2862274999934,[np.float64(-0.3016666666666667)],[np.float64(-0.31666666666666665)],[1],[0],[0],[1.2234980999928666],['Target'],Participant 5,001,2025-09-30_13h49.18.868,visual search task,,2025.1.1,59.99613625258106,2025-09-30 13h49.33.210576 +0530,
77,0,77,[np.float64(-0.26666666666666666)],[np.float64(-0.46)],[1],[0],[0],[0.942018999994616],['Target'],77,0,77,0,97.32296909998695,,10,97.31142659999023,97.32296909998695,97.32296909998695,0.024975699998321943,,98.25365939999756,[np.float64(-0.26666666666666666)],[np.float64(-0.46)],[1],[0],[0],[0.942018999994616],['Target'],Participant 5,001,2025-09-30_13h49.18.868,visual search task,,2025.1.1,59.99613625258106,2025-09-30 13h49.33.210576 +0530,
78,0,78,[np.float64(-0.25583333333333336)],[np.float64(0.48833333333333334)],[1],[0],[0],[1.68847029999597],['Target'],78,0,78,0,98.27592999998888,,5,98.2675290999905,98.27592999998888,98.27592999998888,0.013634999995701946,99.28520239998761,99.95618239999749,[np.float64(-0.25583333333333336)],[np.float64(0.48833333333333334)],[1],[0],[0],[1.68847029999597],['Target'],Participant 5,001,2025-09-30_13h49.18.868,visual search task,,2025.1.1,59.99613625258106,2025-09-30 13h49.33.210576 +0530,
79,0,79,[np.float64(-0.4875)],[np.float64(-0.2775)],[1],[0],[0],[1.4026713000057498],['Target'],79,0,79,0,99.97962109999207,,5,99.97106820000045,99.97962109999207,99.97962109999207,0.014714200005983002,100.98711419999017,101.37391789999674,[np.float64(-0.4875)],[np.float64(-0.2775)],[1],[0],[0],[1.4026713000057498],['Target'],Participant 5,001,2025-09-30_13h49.18.868,visual search task,,2025.1.1,59.99613625258106,2025-09-30 13h49.33.210576 +0530,
80,0,80,[np.float64(-0.2866666666666667)],[np.float64(0.375)],[1],[0],[0],[1.271681999991415],['Target'],80,0,80,0,101.48110149998683,,5,101.38885889999801,101.48110149998683,101.48110149998683,0.014743799998541363,102.48958939999284,102.66072529999656,[np.float64(-0.2866666666666667)],[np.float64(0.375)],[1],[0],[0],[1.271681999991415],['Target'],Participant 5,001,2025-09-30_13h49.18.868,visual search task,,2025.1.1,59.99613625258106,2025-09-30 13h49.33.210576 +0530,
81,0,81,[np.float64(-0.11916666666666667)],[np.float64(0.23583333333333334)],[1],[0],[0],[1.1317544000048656],['Target'],81,0,81,0,102.68495349999284,,5,102.67570959999284,102.68495349999284,102.68495349999284,0.014826999991782941,103.68998679998913,103.80766869999934,[np.float64(-0.11916666666666667)],[np.float64(0.23583333333333334)],[1],[0],[0],[1.1317544000048656],['Target'],Participant 5,001,2025-09-30_13h49.18.868,visual search task,,2025.1.1,59.99613625258106,2025-09-30 13h49.33.210576 +0530,
82,0,82,[np.float64(0.1275)],[np.float64(0.03666666666666667)],[1],[0],[0],[1.242039399992791],['Target'],82,0,82,0,103.82711719999497,,5,103.81950489999144,103.82711719999497,103.82711719999497,0.011708499994711019,104.84232469998824,105.06171019999601,[np.float64(0.1275)],[np.float64(0.03666666666666667)],[1],[0],[0],[1.242039399992791],['Target'],Participant 5,001,2025-09-30_13h49.18.868,visual search task,,2025.1.1,59.99613625258106,2025-09-30 13h49.33.210576 +0530,
83,0,83,[np.float64(-0.2425)],[np.float64(0.035)],[1],[0],[0],[1.1869917000003625],['Target'],83,0,83,0,105.08454589999747,,5,105.0761397999886,105.08454589999747,105.08454589999747,0.014256499998737127,106.09273639999446,106.26332459998957,[np.float64(-0.2425)],[np.float64(0.035)],[1],[0],[0],[1.1869917000003625],['Target'],Participant 5,001,2025-09-30_13h49.18.868,visual search task,,2025.1.1,59.99613625258106,2025-09-30 13h49.33.210576 +0530,
84,0,84,[np.float64(-0.09)],[np.float64(-0.265)],[1],[0],[0],[1.1770673999999417],['Target'],84,0,84,0,106.29884639999364,,10,106.28705659999105,106.29884639999364,106.29884639999364,0.023530599995865487,107.31109029999061,107.4643020999938,[np.float64(-0.09)],[np.float64(-0.265)],[1],[0],[0],[1.1770673999999417],['Target'],Participant 5,001,2025-09-30_13h49.18.868,visual search task,,2025.1.1,59.99613625258106,2025-09-30 13h49.33.210576 +0530,
85,0,85,[np.float64(0.35)],[np.float64(-0.01)],[1],[0],[0],[1.1935705000068992],['Target'],85,0,85,0,107.50173179998819,,10,107.4895802999963,107.50173179998819,107.50173179998819,0.025055699996300973,108.51216119999299,108.68334469999536,[np.float64(0.35)],[np.float64(-0.01)],[1],[0],[0],[1.1935705000068992],['Target'],Participant 5,001,2025-09-30_13h49.18.868,visual search task,,2025.1.1,59.99613625258106,2025-09-30 13h49.33.210576 +0530,
86,0,86,[np.float64(-0.4475)],[np.float64(0.4683333333333333)],[1],[0],[0],[1.9089525000017602],['Target'],86,0,86,0,108.72020849998808,,10,108.70930279999448,108.72020849998808,108.72020849998808,0.025718099990626797,109.7305803999916,110.6184360999905,[np.float64(-0.4475)],[np.float64(0.4683333333333333)],[1],[0],[0],[1.9089525000017602],['Target'],Participant 5,001,2025-09-30_13h49.18.868,visual search task,,2025.1.1,59.99613625258106,2025-09-30 13h49.33.210576 +0530,
87,0,87,[np.float64(0.021666666666666667)],[np.float64(-0.15916666666666668)],[1],[0],[0],[1.2240998999914154],['Target'],87,0,87,0,110.65528129998711,,10,110.64403159999347,110.65528129998711,110.65528129998711,0.025384599997778423,111.66569629999867,111.86831429999438,[np.float64(0.021666666666666667)],[np.float64(-0.15916666666666668)],[1],[0],[0],[1.2240998999914154],['Target'],Participant 5,001,2025-09-30_13h49.18.868,visual search task,,2025.1.1,59.99613625258106,2025-09-30 13h49.33.210576 +0530,
88,0,88,[np.float64(-0.49166666666666664)],[np.float64(-0.37333333333333335)],[1],[0],[0],[1.1366203000070527],['Target'],88,0,88,0,111.89288719999604,,5,111.88304229998903,111.89288719999604,111.89288719999604,0.014590799997677095,112.9005221999978,113.01986519999627,[np.float64(-0.49166666666666664)],[np.float64(-0.37333333333333335)],[1],[0],[0],[1.1366203000070527],['Target'],Participant 5,001,2025-09-30_13h49.18.868,visual search task,,2025.1.1,59.99613625258106,2025-09-30 13h49.33.210576 +0530,
89,0,89,[np.float64(0.0725)],[np.float64(-0.14416666666666667)],[1],[0],[0],[0.9700905000063358],['Target'],89,0,89,0,113.04381730000023,,5,113.03406379999069,113.04381730000023,113.04381730000023,0.014015299995662645,,114.00436229999468,[np.float64(0.0725)],[np.float64(-0.14416666666666667)],[1],[0],[0],[0.9700905000063358],['Target'],Participant 5,001,2025-09-30_13h49.18.868,visual search task,,2025.1.1,59.99613625258106,2025-09-30 13h49.33.210576 +0530,
90,0,90,"[np.float64(-0.18666666666666668), np.float64(-0.16)]","[np.float64(-0.44916666666666666), np.float64(-0.4575)]","[1, 1]","[0, 0]","[0, 0]","[1.1567868999991333, 1.591667900007451]","[None, 'Target']",90,0,90,0,114.04205459999503,,10,114.03002929998911,114.04205459999503,114.04205459999503,0.02548650000244379,115.05259429999569,115.6218838999921,"[np.float64(-0.18666666666666668), np.float64(-0.16)]","[np.float64(-0.44916666666666666), np.float64(-0.4575)]","[1, 1]","[0, 0]","[0, 0]","[1.1567868999991333, 1.591667900007451]","[None, 'Target']",Participant 5,001,2025-09-30_13h49.18.868,visual search task,,2025.1.1,59.99613625258106,2025-09-30 13h49.33.210576 +0530,
91,0,91,[np.float64(0.48583333333333334)],[np.float64(-0.4825)],[1],[0],[0],[1.2400764000049094],['Target'],91,0,91,0,115.66271259999485,,10,115.6501864999882,115.66271259999485,115.66271259999485,0.028064099999028258,116.6714057999925,116.89045609999448,[np.float64(0.48583333333333334)],[np.float64(-0.4825)],[1],[0],[0],[1.2400764000049094],['Target'],Participant 5,001,2025-09-30_13h49.18.868,visual search task,,2025.1.1,59.99613625258106,2025-09-30 13h49.33.210576 +0530,
92,0,92,[np.float64(-0.055)],[np.float64(0.04833333333333333)],[1],[0],[0],[1.0220169000094756],['Target'],92,0,92,0,116.93124999999418,,10,116.9194007999904,116.93124999999418,116.93124999999418,0.02880290000757668,117.93902949999028,117.94159789998957,[np.float64(-0.055)],[np.float64(0.04833333333333333)],[1],[0],[0],[1.0220169000094756],['Target'],Participant 5,001,2025-09-30_13h49.18.868,visual search task,,2025.1.1,59.99613625258106,2025-09-30 13h49.33.210576 +0530,
93,0,93,[np.float64(-0.08833333333333333)],[np.float64(0.030833333333333334)],[1],[0],[0],[1.9438839000067674],['Target'],93,0,93,0,117.97821249999106,,10,117.96609659999376,117.97821249999106,117.97821249999106,0.024265900006867014,118.99026709998725,119.91017740000098,[np.float64(-0.08833333333333333)],[np.float64(0.030833333333333334)],[1],[0],[0],[1.9438839000067674],['Target'],Participant 5,001,2025-09-30_13h49.18.868,visual search task,,2025.1.1,59.99613625258106,2025-09-30 13h49.33.210576 +0530,
94,0,94,[np.float64(0.49166666666666664)],[np.float64(0.26416666666666666)],[1],[0],[0],[0.9858291999989888],['Target'],94,0,94,0,119.9332987999951,,5,119.92406320000009,119.9332987999951,119.9332987999951,0.01375009999901522,,120.91011909999361,[np.float64(0.49166666666666664)],[np.float64(0.26416666666666666)],[1],[0],[0],[0.9858291999989888],['Target'],Participant 5,001,2025-09-30_13h49.18.868,visual search task,,2025.1.1,59.99613625258106,2025-09-30 13h49.33.210576 +0530,
95,0,95,"[np.float64(0.14333333333333334), np.float64(0.14666666666666667)]","[np.float64(0.4275), np.float64(0.41583333333333333)]","[1, 1]","[0, 0]","[0, 0]","[0.8546353000128875, 1.3049927000101889]","[None, 'Target']",95,0,95,0,120.93421349998971,,5,120.92411819999688,120.93421349998971,120.93421349998971,0.01381519999995362,121.94334529999469,122.22930379999161,"[np.float64(0.14333333333333334), np.float64(0.14666666666666667)]","[np.float64(0.4275), np.float64(0.41583333333333333)]","[1, 1]","[0, 0]","[0, 0]","[0.8546353000128875, 1.3049927000101889]","[None, 'Target']",Participant 5,001,2025-09-30_13h49.18.868,visual search task,,2025.1.1,59.99613625258106,2025-09-30 13h49.33.210576 +0530,
96,0,96,[np.float64(0.33166666666666667)],[np.float64(-0.1125)],[1],[0],[0],[1.0585389000043506],['Target'],96,0,96,0,122.26756119998754,,10,122.25550239998847,122.26756119998754,122.26756119998754,0.025994399999035522,123.27836089998891,123.31421810000029,[np.float64(0.33166666666666667)],[np.float64(-0.1125)],[1],[0],[0],[1.0585389000043506],['Target'],Participant 5,001,2025-09-30_13h49.18.868,visual search task,,2025.1.1,59.99613625258106,2025-09-30 13h49.33.210576 +0530,
97,0,97,[np.float64(-0.47333333333333333)],[np.float64(0.1325)],[1],[0],[0],[0.8193832999968436],['Target'],97,0,97,0,123.33730219998688,,5,123.32706809999945,123.33730219998688,123.33730219998688,0.01265209999110084,,124.14664729998913,[np.float64(-0.47333333333333333)],[np.float64(0.1325)],[1],[0],[0],[0.8193832999968436],['Target'],Participant 5,001,2025-09-30_13h49.18.868,visual search task,,2025.1.1,59.99613625258106,2025-09-30 13h49.33.210576 +0530,
98,0,98,[np.float64(-0.30833333333333335)],[np.float64(0.11083333333333334)],[1],[0],[0],[1.2252121000055922],['Target'],98,0,98,0,124.1864196999959,,10,124.17397619999247,124.1864196999959,124.1864196999959,0.027171800000360236,125.19736039999407,125.39937529999588,[np.float64(-0.30833333333333335)],[np.float64(0.11083333333333334)],[1],[0],[0],[1.2252121000055922],['Target'],Participant 5,001,2025-09-30_13h49.18.868,visual search task,,2025.1.1,59.99613625258106,2025-09-30 13h49.33.210576 +0530,
99,0,99,[np.float64(0.46)],[np.float64(-0.43166666666666664)],[1],[0],[0],[1.8094102000031853],['Target'],99,0,99,0,125.43926679999277,,10,125.42598999998881,125.43926679999277,125.43926679999277,0.026480400003492832,126.44851029998972,127.23562589999347,[np.float64(0.46)],[np.float64(-0.43166666666666664)],[1],[0],[0],[1.8094102000031853],['Target'],Participant 5,001,2025-09-30_13h49.18.868,visual search task,,2025.1.1,59.99613625258106,2025-09-30 13h49.33.210576 +0530,
100,0,100,[np.float64(-0.06833333333333333)],[np.float64(-0.07416666666666667)],[1],[0],[0],[1.0909002999978838],['Target'],100,0,100,0,127.27324159999262,,10,127.26243589998921,127.27324159999262,127.27324159999262,0.02656720000959467,128.28367809999327,128.35350349999499,[np.float64(-0.06833333333333333)],[np.float64(-0.07416666666666667)],[1],[0],[0],[1.0909002999978838],['Target'],Participant 5,001,2025-09-30_13h49.18.868,visual search task,,2025.1.1,59.99613625258106,2025-09-30 13h49.33.210576 +0530,
101,0,101,[np.float64(-0.16416666666666666)],[np.float64(0.35583333333333333)],[1],[0],[0],[0.9179170999996131],['Target'],101,0,101,0,128.37583729998732,,5,128.36776009999448,128.37583729998732,128.37583729998732,0.01410780000151135,,129.2858675999887,[np.float64(-0.16416666666666666)],[np.float64(0.35583333333333333)],[1],[0],[0],[0.9179170999996131],['Target'],Participant 5,001,2025-09-30_13h49.18.868,visual search task,,2025.1.1,59.99613625258106,2025-09-30 13h49.33.210576 +0530,
102,0,102,"[np.float64(0.21083333333333334), np.float64(0.19416666666666665)]","[np.float64(0.14916666666666667), np.float64(0.15833333333333333)]","[1, 1]","[0, 0]","[0, 0]","[0.794579999987036, 1.2440742999897338]","[None, 'Target']",102,0,102,0,129.32263109998894,,10,129.3104694999929,129.32263109998894,129.32263109998894,0.02443689999927301,130.33709199998702,130.5547177999979,"[np.float64(0.21083333333333334), np.float64(0.19416666666666665)]","[np.float64(0.14916666666666667), np.float64(0.15833333333333333)]","[1, 1]","[0, 0]","[0, 0]","[0.794579999987036, 1.2440742999897338]","[None, 'Target']",Participant 5,001,2025-09-30_13h49.18.868,visual search task,,2025.1.1,59.99613625258106,2025-09-30 13h49.33.210576 +0530,
103,0,103,[np.float64(-0.1925)],[np.float64(0.19416666666666665)],[1],[0],[0],[1.0381535999913467],['Target'],103,0,103,0,130.59932069999923,,10,130.5848174999992,130.59932069999923,130.59932069999923,0.02988570000161417,131.60408109999844,131.6231631999981,[np.float64(-0.1925)],[np.float64(0.19416666666666665)],[1],[0],[0],[1.0381535999913467],['Target'],Participant 5,001,2025-09-30_13h49.18.868,visual search task,,2025.1.1,59.99613625258106,2025-09-30 13h49.33.210576 +0530,
104,0,104,"[np.float64(0.40166666666666667), np.float64(0.38916666666666666)]","[np.float64(-0.3225), np.float64(-0.30083333333333334)]","[1, 1]","[0, 0]","[0, 0]","[0.9365216000005603, 1.4370449999987613]","[None, 'Target']",104,0,104,0,131.6465479999897,,5,131.637321599992,131.6465479999897,131.6465479999897,0.013992099993629381,132.65535859999363,133.0745598999929,"[np.float64(0.40166666666666667), np.float64(0.38916666666666666)]","[np.float64(-0.3225), np.float64(-0.30083333333333334)]","[1, 1]","[0, 0]","[0, 0]","[0.9365216000005603, 1.4370449999987613]","[None, 'Target']",Participant 5,001,2025-09-30_13h49.18.868,visual search task,,2025.1.1,59.99613625258106,2025-09-30 13h49.33.210576 +0530,
105,0,105,[np.float64(0.18666666666666668)],[np.float64(-0.4425)],[1],[0],[0],[0.9699588000075892],['Target'],105,0,105,0,133.09807799999544,,5,133.08909239999775,133.09807799999544,133.09807799999544,0.014400200001546182,,134.0592864999926,[np.float64(0.18666666666666668)],[np.float64(-0.4425)],[1],[0],[0],[0.9699588000075892],['Target'],Participant 5,001,2025-09-30_13h49.18.868,visual search task,,2025.1.1,59.99613625258106,2025-09-30 13h49.33.210576 +0530,
106,0,106,[np.float64(-0.1075)],[np.float64(0.4558333333333333)],[1],[0],[0],[0.9407683999888832],['Target'],106,0,106,0,134.09800420000101,,10,134.08620749998954,134.09800420000101,134.09800420000101,0.026682600000640377,,135.02716669999063,[np.float64(-0.1075)],[np.float64(0.4558333333333333)],[1],[0],[0],[0.9407683999888832],['Target'],Participant 5,001,2025-09-30_13h49.18.868,visual search task,,2025.1.1,59.99613625258106,2025-09-30 13h49.33.210576 +0530,
107,0,107,[np.float64(-0.4775)],[np.float64(-0.43333333333333335)],[1],[0],[0],[1.237906500013196],['Target'],107,0,107,0,135.04860439999902,,5,135.04057459998876,135.04860439999902,135.04860439999902,0.013210899996920489,136.05900619999738,136.27867200000037,[np.float64(-0.4775)],[np.float64(-0.43333333333333335)],[1],[0],[0],[1.237906500013196],['Target'],Participant 5,001,2025-09-30_13h49.18.868,visual search task,,2025.1.1,59.99613625258106,2025-09-30 13h49.33.210576 +0530,
108,0,108,[np.float64(0.435)],[np.float64(0.3625)],[1],[0],[0],[1.8199502999923425],['Target'],108,0,108,0,136.30266119999578,,5,136.29328939999687,136.30266119999578,136.30266119999578,0.014402199987671338,137.31075129999954,138.11342699998931,[np.float64(0.435)],[np.float64(0.3625)],[1],[0],[0],[1.8199502999923425],['Target'],Participant 5,001,2025-09-30_13h49.18.868,visual search task,,2025.1.1,59.99613625258106,2025-09-30 13h49.33.210576 +0530,
109,0,109,[np.float64(-0.4425)],[np.float64(-0.019166666666666665)],[1],[0],[0],[0.9568412999942666],['Target'],109,0,109,0,138.15308540000115,,10,138.14110419999633,138.15308540000115,138.15308540000115,0.027552400002605282,,139.0981133999885,[np.float64(-0.4425)],[np.float64(-0.019166666666666665)],[1],[0],[0],[0.9568412999942666],['Target'],Participant 5,001,2025-09-30_13h49.18.868,visual search task,,2025.1.1,59.99613625258106,2025-09-30 13h49.33.210576 +0530,
110,0,110,[np.float64(0.16833333333333333)],[np.float64(-0.2725)],[1],[0],[0],[0.9551766000076896],['Target'],110,0,110,0,139.1394891999953,,10,139.1260159999947,139.1394891999953,139.1394891999953,0.02775939999264665,,140.08141590000014,[np.float64(0.16833333333333333)],[np.float64(-0.2725)],[1],[0],[0],[0.9551766000076896],['Target'],Participant 5,001,2025-09-30_13h49.18.868,visual search task,,2025.1.1,59.99613625258106,2025-09-30 13h49.33.210576 +0530,
111,0,111,[np.float64(-0.4525)],[np.float64(0.19916666666666666)],[1],[0],[0],[0.8206466999981785],['Target'],111,0,111,0,140.10570189999999,,5,140.09569219998957,140.10570189999999,140.10570189999999,0.01407669999753125,,140.91656119999243,[np.float64(-0.4525)],[np.float64(0.19916666666666666)],[1],[0],[0],[0.8206466999981785],['Target'],Participant 5,001,2025-09-30_13h49.18.868,visual search task,,2025.1.1,59.99613625258106,2025-09-30 13h49.33.210576 +0530,
112,0,112,"[np.float64(0.2891666666666667), np.float64(0.31)]","[np.float64(0.3325), np.float64(0.3641666666666667)]","[1, 1]","[0, 0]","[0, 0]","[0.9519541000045137, 1.6368342000059783]","[None, 'Target']",112,0,112,0,140.94063529999403,,5,140.93165139999473,140.94063529999403,140.94063529999403,0.014929400000255555,141.94861929999024,142.56873459999042,"[np.float64(0.2891666666666667), np.float64(0.31)]","[np.float64(0.3325), np.float64(0.3641666666666667)]","[1, 1]","[0, 0]","[0, 0]","[0.9519541000045137, 1.6368342000059783]","[None, 'Target']",Participant 5,001,2025-09-30_13h49.18.868,visual search task,,2025.1.1,59.99613625258106,2025-09-30 13h49.33.210576 +0530,
113,0,113,"[np.float64(-0.37583333333333335), np.float64(-0.42583333333333334), np.float64(0.24083333333333334), np.float64(-0.45), np.float64(-0.45), np.float64(-0.3566666666666667), np.float64(-0.3525)]","[np.float64(0.5), np.float64(-0.10916666666666666), np.float64(-0.47), np.float64(-0.09666666666666666), np.float64(-0.09666666666666666), np.float64(0.5), np.float64(0.49833333333333335)]","[1, 1, 1, 1, 1, 1, 1]","[0, 0, 0, 0, 0, 0, 0]","[0, 0, 0, 0, 0, 0, 0]","[3.074481999996351, 5.378349300008267, 6.212548299998161, 7.380258699995466, 7.7962942000012845, 8.948616099994979, 9.416041999997105]","[None, None, None, None, None, None, 'Target']",113,0,113,0,142.60775509999075,,10,142.59563459998753,142.60775509999075,142.60775509999075,0.02664300000469666,143.6170950999949,152.0118397999904,"[np.float64(-0.37583333333333335), np.float64(-0.42583333333333334), np.float64(0.24083333333333334), np.float64(-0.45), np.float64(-0.45), np.float64(-0.3566666666666667), np.float64(-0.3525)]","[np.float64(0.5), np.float64(-0.10916666666666666), np.float64(-0.47), np.float64(-0.09666666666666666), np.float64(-0.09666666666666666), np.float64(0.5), np.float64(0.49833333333333335)]","[1, 1, 1, 1, 1, 1, 1]","[0, 0, 0, 0, 0, 0, 0]","[0, 0, 0, 0, 0, 0, 0]","[3.074481999996351, 5.378349300008267, 6.212548299998161, 7.380258699995466, 7.7962942000012845, 8.948616099994979, 9.416041999997105]","[None, None, None, None, None, None, 'Target']",Participant 5,001,2025-09-30_13h49.18.868,visual search task,,2025.1.1,59.99613625258106,2025-09-30 13h49.33.210576 +0530,
114,0,114,[np.float64(0.0016666666666666668)],[np.float64(-0.17916666666666667)],[1],[0],[0],[1.3866126000066288],['Target'],114,0,114,0,152.03520529999514,,5,152.0261099999916,152.03520529999514,152.03520529999514,0.014025399999809451,153.04463429999305,153.41294379999454,[np.float64(0.0016666666666666668)],[np.float64(-0.17916666666666667)],[1],[0],[0],[1.3866126000066288],['Target'],Participant 5,001,2025-09-30_13h49.18.868,visual search task,,2025.1.1,59.99613625258106,2025-09-30 13h49.33.210576 +0530,
115,0,115,"[np.float64(0.18), np.float64(0.17)]","[np.float64(0.075), np.float64(0.05333333333333334)]","[1, 1]","[0, 0]","[0, 0]","[1.0279206999985036, 1.6782314000010956]","[None, 'Target']",115,0,115,0,153.44934239999566,,10,153.4368445,153.44934239999566,153.44934239999566,0.023724099999526516,154.4624354999978,155.11526039999444,"[np.float64(0.18), np.float64(0.17)]","[np.float64(0.075), np.float64(0.05333333333333334)]","[1, 1]","[0, 0]","[0, 0]","[1.0279206999985036, 1.6782314000010956]","[None, 'Target']",Participant 5,001,2025-09-30_13h49.18.868,visual search task,,2025.1.1,59.99613625258106,2025-09-30 13h49.33.210576 +0530,
116,0,116,[np.float64(-0.075)],[np.float64(0.4166666666666667)],[1],[0],[0],[0.9213296000089031],['Target'],116,0,116,0,155.13866029999917,,5,155.12902739999117,155.13866029999917,155.13866029999917,0.013603100000182167,,156.05055939999875,[np.float64(-0.075)],[np.float64(0.4166666666666667)],[1],[0],[0],[0.9213296000089031],['Target'],Participant 5,001,2025-09-30_13h49.18.868,visual search task,,2025.1.1,59.99613625258106,2025-09-30 13h49.33.210576 +0530,
117,0,117,[np.float64(0.41083333333333333)],[np.float64(-0.1925)],[1],[0],[0],[1.3032805999973789],['Target'],117,0,117,0,156.073307499988,,5,156.0647411999962,156.073307499988,156.073307499988,0.014017299996339716,157.08199859999877,157.36819589999504,[np.float64(0.41083333333333333)],[np.float64(-0.1925)],[1],[0],[0],[1.3032805999973789],['Target'],Participant 5,001,2025-09-30_13h49.18.868,visual search task,,2025.1.1,59.99613625258106,2025-09-30 13h49.33.210576 +0530,
118,0,118,[np.float64(0.10166666666666667)],[np.float64(0.235)],[1],[0],[0],[0.9557894999888958],['Target'],118,0,118,0,157.40997409999545,,10,157.39632780000102,157.40997409999545,157.40997409999545,0.02800510000088252,,158.35234109999146,[np.float64(0.10166666666666667)],[np.float64(0.235)],[1],[0],[0],[0.9557894999888958],['Target'],Participant 5,001,2025-09-30_13h49.18.868,visual search task,,2025.1.1,59.99613625258106,2025-09-30 13h49.33.210576 +0530,
119,0,119,"[np.float64(-0.050833333333333335), np.float64(-0.045)]","[np.float64(0.0016666666666666668), np.float64(0.0016666666666666668)]","[1, 1]","[0, 0]","[0, 0]","[1.5570522000052733, 2.0068782000016654]","[None, 'Target']",119,0,119,0,158.39270329999272,,10,158.37927689999924,158.39270329999272,158.39270329999272,0.026763200003188103,159.40139389999968,160.3863951999956,"[np.float64(-0.050833333333333335), np.float64(-0.045)]","[np.float64(0.0016666666666666668), np.float64(0.0016666666666666668)]","[1, 1]","[0, 0]","[0, 0]","[1.5570522000052733, 2.0068782000016654]","[None, 'Target']",Participant 5,001,2025-09-30_13h49.18.868,visual search task,,2025.1.1,59.99613625258106,2025-09-30 13h49.33.210576 +0530,
120,0,120,[np.float64(-0.3641666666666667)],[np.float64(-0.2733333333333333)],[1],[0],[0],[0.9734926000091946],['Target'],120,0,120,0,160.4088361999893,,5,160.39938509999774,160.4088361999893,160.4088361999893,0.012741200000164099,,161.37311329999648,[np.float64(-0.3641666666666667)],[np.float64(-0.2733333333333333)],[1],[0],[0],[0.9734926000091946],['Target'],Participant 5,001,2025-09-30_13h49.18.868,visual search task,,2025.1.1,59.99613625258106,2025-09-30 13h49.33.210576 +0530,
121,0,121,[np.float64(0.48083333333333333)],[np.float64(-0.31916666666666665)],[1],[0],[0],[0.9581922000070335],['Target'],121,0,121,0,161.41168809999363,,10,161.3994462999981,161.41168809999363,161.41168809999363,0.0261402000032831,,162.35782689999905,[np.float64(0.48083333333333333)],[np.float64(-0.31916666666666665)],[1],[0],[0],[0.9581922000070335],['Target'],Participant 5,001,2025-09-30_13h49.18.868,visual search task,,2025.1.1,59.99613625258106,2025-09-30 13h49.33.210576 +0530,
122,0,122,[np.float64(0.4766666666666667)],[np.float64(-0.4891666666666667)],[1],[0],[0],[2.3436026999988826],['Target'],122,0,122,0,162.3951334000012,,10,162.38308959999995,162.3951334000012,162.3951334000012,0.025047599992831238,163.40593169999192,164.72685799999454,[np.float64(0.4766666666666667)],[np.float64(-0.4891666666666667)],[1],[0],[0],[2.3436026999988826],['Target'],Participant 5,001,2025-09-30_13h49.18.868,visual search task,,2025.1.1,59.99613625258106,2025-09-30 13h49.33.210576 +0530,
123,0,123,[np.float64(0.41583333333333333)],[np.float64(0.0008333333333333334)],[1],[0],[0],[0.9513858999998774],['Target'],123,0,123,0,164.75147299999662,,5,164.7417504999903,164.75147299999662,164.75147299999662,0.014737700010300614,,165.69336099999782,[np.float64(0.41583333333333333)],[np.float64(0.0008333333333333334)],[1],[0],[0],[0.9513858999998774],['Target'],Participant 5,001,2025-09-30_13h49.18.868,visual search task,,2025.1.1,59.99613625258106,2025-09-30 13h49.33.210576 +0530,
124,0,124,[np.float64(-0.275)],[np.float64(0.0875)],[1],[0],[0],[1.655160700000124],['Target'],124,0,124,0,165.71510539999872,,5,165.70740109999315,165.71510539999872,165.71510539999872,0.013897900003939867,166.7259345999919,167.3627373999916,[np.float64(-0.275)],[np.float64(0.0875)],[1],[0],[0],[1.655160700000124],['Target'],Participant 5,001,2025-09-30_13h49.18.868,visual search task,,2025.1.1,59.99613625258106,2025-09-30 13h49.33.210576 +0530,
125,0,125,[np.float64(-0.05333333333333334)],[np.float64(-0.1325)],[1],[0],[0],[0.8263191000005463],['Target'],125,0,125,0,167.40023210000072,,10,167.38796559999173,167.40023210000072,167.40023210000072,0.025063900000532158,,168.2144716999901,[np.float64(-0.05333333333333334)],[np.float64(-0.1325)],[1],[0],[0],[0.8263191000005463],['Target'],Participant 5,001,2025-09-30_13h49.18.868,visual search task,,2025.1.1,59.99613625258106,2025-09-30 13h49.33.210576 +0530,
126,0,126,[np.float64(-0.3125)],[np.float64(-0.315)],[1],[0],[0],[0.8198514999967301],['Target'],126,0,126,0,168.2369636999938,,5,168.22804699999688,168.2369636999938,168.2369636999938,0.013363400008529425,,169.04809459998796,[np.float64(-0.3125)],[np.float64(-0.315)],[1],[0],[0],[0.8198514999967301],['Target'],Participant 5,001,2025-09-30_13h49.18.868,visual search task,,2025.1.1,59.99613625258106,2025-09-30 13h49.33.210576 +0530,
127,0,127,[np.float64(-0.37833333333333335)],[np.float64(0.055)],[1],[0],[0],[0.7914282999990974],['Target'],127,0,127,0,169.08650429999398,,10,169.07380030000058,169.08650429999398,169.08650429999398,0.025431500005652197,,169.8654172999959,[np.float64(-0.37833333333333335)],[np.float64(0.055)],[1],[0],[0],[0.7914282999990974],['Target'],Participant 5,001,2025-09-30_13h49.18.868,visual search task,,2025.1.1,59.99613625258106,2025-09-30 13h49.33.210576 +0530,
128,0,128,[np.float64(-0.19583333333333333)],[np.float64(-0.4)],[1],[0],[0],[0.8698447999922791],['Target'],128,0,128,0,169.8877150999906,,5,169.8799721999967,169.8877150999906,169.8877150999906,0.014406200003577396,,170.75002569999197,[np.float64(-0.19583333333333333)],[np.float64(-0.4)],[1],[0],[0],[0.8698447999922791],['Target'],Participant 5,001,2025-09-30_13h49.18.868,visual search task,,2025.1.1,59.99613625258106,2025-09-30 13h49.33.210576 +0530,
129,0,129,"[np.float64(-0.008333333333333333), np.float64(0.0025)]","[np.float64(-0.34), np.float64(-0.34)]","[1, 1]","[0, 0]","[0, 0]","[0.8572079000005033, 1.4575578000076348]","[None, 'Target']",129,0,129,0,170.78807189999497,,10,170.7764801000012,170.78807189999497,170.78807189999497,0.026251299990690313,171.79840649999096,172.2342198999977,"[np.float64(-0.008333333333333333), np.float64(0.0025)]","[np.float64(-0.34), np.float64(-0.34)]","[1, 1]","[0, 0]","[0, 0]","[0.8572079000005033, 1.4575578000076348]","[None, 'Target']",Participant 5,001,2025-09-30_13h49.18.868,visual search task,,2025.1.1,59.99613625258106,2025-09-30 13h49.33.210576 +0530,
130,0,130,[np.float64(-0.0525)],[np.float64(0.4116666666666667)],[1],[0],[0],[1.0238804000109667],['Target'],130,0,130,0,172.27386979998846,,10,172.26175169998896,172.27386979998846,172.27386979998846,0.027320500012137927,173.2831245999987,173.2858300999942,[np.float64(-0.0525)],[np.float64(0.4116666666666667)],[1],[0],[0],[1.0238804000109667],['Target'],Participant 5,001,2025-09-30_13h49.18.868,visual search task,,2025.1.1,59.99613625258106,2025-09-30 13h49.33.210576 +0530,
131,0,131,[np.float64(-0.03)],[np.float64(-0.17)],[1],[0],[0],[0.8881614999991143],['Target'],131,0,131,0,173.32757449999917,,10,173.31383359999745,173.32757449999917,173.32757449999917,0.02780390001134947,,174.20222949999152,[np.float64(-0.03)],[np.float64(-0.17)],[1],[0],[0],[0.8881614999991143],['Target'],Participant 5,001,2025-09-30_13h49.18.868,visual search task,,2025.1.1,59.99613625258106,2025-09-30 13h49.33.210576 +0530,
132,0,132,[np.float64(0.2875)],[np.float64(0.11083333333333334)],[1],[0],[0],[0.7961898999928962],['Target'],132,0,132,0,174.2359410999925,,10,174.2245639999892,174.2359410999925,174.2359410999925,0.02218650000577327,,175.02093649999006,[np.float64(0.2875)],[np.float64(0.11083333333333334)],[1],[0],[0],[0.7961898999928962],['Target'],Participant 5,001,2025-09-30_13h49.18.868,visual search task,,2025.1.1,59.99613625258106,2025-09-30 13h49.33.210576 +0530,
133,0,133,[np.float64(0.3)],[np.float64(-0.38666666666666666)],[1],[0],[0],[0.9377499999973224],['Target'],133,0,133,0,175.043749199991,,5,175.03494559999672,175.043749199991,175.043749199991,0.0138130999985151,,175.97289499999897,[np.float64(0.3)],[np.float64(-0.38666666666666666)],[1],[0],[0],[0.9377499999973224],['Target'],Participant 5,001,2025-09-30_13h49.18.868,visual search task,,2025.1.1,59.99613625258106,2025-09-30 13h49.33.210576 +0530,
134,0,134,"[np.float64(0.3175), np.float64(0.3541666666666667)]","[np.float64(0.36083333333333334), np.float64(0.3725)]","[1, 1]","[0, 0]","[0, 0]","[1.3080878000037046, 1.92509710000013]","[None, 'Target']",134,0,134,0,176.01301529999182,,10,175.99865399999544,176.01301529999182,176.01301529999182,0.025573099992470816,177.0208869999915,177.92396269999153,"[np.float64(0.3175), np.float64(0.3541666666666667)]","[np.float64(0.36083333333333334), np.float64(0.3725)]","[1, 1]","[0, 0]","[0, 0]","[1.3080878000037046, 1.92509710000013]","[None, 'Target']",Participant 5,001,2025-09-30_13h49.18.868,visual search task,,2025.1.1,59.99613625258106,2025-09-30 13h49.33.210576 +0530,
135,0,135,[np.float64(-0.26416666666666666)],[np.float64(0.24833333333333332)],[1],[0],[0],[0.9050468000059482],['Target'],135,0,135,0,177.96532149999985,,10,177.95319319999544,177.96532149999985,177.96532149999985,0.028988300007767975,,178.85844339999312,[np.float64(-0.26416666666666666)],[np.float64(0.24833333333333332)],[1],[0],[0],[0.9050468000059482],['Target'],Participant 5,001,2025-09-30_13h49.18.868,visual search task,,2025.1.1,59.99613625258106,2025-09-30 13h49.33.210576 +0530,
136,0,136,"[np.float64(-0.1825), np.float64(-0.1725)]","[np.float64(0.1375), np.float64(0.14416666666666667)]","[1, 1]","[0, 0]","[0, 0]","[0.6866045000060694, 1.2204855000018142]","[None, 'Target']",136,0,136,0,178.8803740000003,,5,178.87214529998892,178.8803740000003,178.8803740000003,0.01350260000617709,179.8903539999883,180.09280189999845,"[np.float64(-0.1825), np.float64(-0.1725)]","[np.float64(0.1375), np.float64(0.14416666666666667)]","[1, 1]","[0, 0]","[0, 0]","[0.6866045000060694, 1.2204855000018142]","[None, 'Target']",Participant 5,001,2025-09-30_13h49.18.868,visual search task,,2025.1.1,59.99613625258106,2025-09-30 13h49.33.210576 +0530,
137,0,137,"[np.float64(-0.35833333333333334), np.float64(-0.35333333333333333)]","[np.float64(0.13833333333333334), np.float64(0.1325)]","[1, 1]","[0, 0]","[0, 0]","[0.8030168999976013, 1.3369117999973241]","[None, 'Target']",137,0,137,0,180.11601579999842,,5,180.1073580999946,180.11601579999842,180.11601579999842,0.01435969999874942,181.12510459999612,181.4444528999884,"[np.float64(-0.35833333333333334), np.float64(-0.35333333333333333)]","[np.float64(0.13833333333333334), np.float64(0.1325)]","[1, 1]","[0, 0]","[0, 0]","[0.8030168999976013, 1.3369117999973241]","[None, 'Target']",Participant 5,001,2025-09-30_13h49.18.868,visual search task,,2025.1.1,59.99613625258106,2025-09-30 13h49.33.210576 +0530,
138,0,138,[np.float64(-0.37666666666666665)],[np.float64(0.26)],[1],[0],[0],[0.956652299995767],['Target'],138,0,138,0,181.48727719999442,,10,181.47232669999357,181.48727719999442,181.48727719999442,0.027706799999577925,,182.42919830000028,[np.float64(-0.37666666666666665)],[np.float64(0.26)],[1],[0],[0],[0.956652299995767],['Target'],Participant 5,001,2025-09-30_13h49.18.868,visual search task,,2025.1.1,59.99613625258106,2025-09-30 13h49.33.210576 +0530,
139,0,139,[np.float64(0.02)],[np.float64(-0.45166666666666666)],[1],[0],[0],[1.6374174999946263],['Target'],139,0,139,0,182.4514225999883,,5,182.44339979998767,182.4514225999883,182.4514225999883,0.013993000000482425,183.46091840000008,184.0809964999935,[np.float64(0.02)],[np.float64(-0.45166666666666666)],[1],[0],[0],[1.6374174999946263],['Target'],Participant 5,001,2025-09-30_13h49.18.868,visual search task,,2025.1.1,59.99613625258106,2025-09-30 13h49.33.210576 +0530,
140,0,140,[np.float64(-0.4216666666666667)],[np.float64(0.14083333333333334)],[1],[0],[0],[1.0605972000048496],['Target'],140,0,140,0,184.11707809999643,,10,184.10478059999878,184.11707809999643,184.11707809999643,0.02362030000949744,185.129789899991,185.16559839999536,[np.float64(-0.4216666666666667)],[np.float64(0.14083333333333334)],[1],[0],[0],[1.0605972000048496],['Target'],Participant 5,001,2025-09-30_13h49.18.868,visual search task,,2025.1.1,59.99613625258106,2025-09-30 13h49.33.210576 +0530,
141,0,141,"[np.float64(0.0625), np.float64(0.0525)]","[np.float64(-0.195), np.float64(-0.19333333333333333)]","[1, 1]","[0, 0]","[0, 0]","[0.9882639999996172, 1.4733494000101928]","[None, 'Target']",141,0,141,0,185.2070698999887,,10,185.1929339999915,185.2070698999887,185.2070698999887,0.02712319999409374,186.21417349998956,186.66649649999454,"[np.float64(0.0625), np.float64(0.0525)]","[np.float64(-0.195), np.float64(-0.19333333333333333)]","[1, 1]","[0, 0]","[0, 0]","[0.9882639999996172, 1.4733494000101928]","[None, 'Target']",Participant 5,001,2025-09-30_13h49.18.868,visual search task,,2025.1.1,59.99613625258106,2025-09-30 13h49.33.210576 +0530,
142,0,142,[np.float64(-0.385)],[np.float64(-0.4625)],[1],[0],[0],[1.6436093999946024],['Target'],142,0,142,0,186.70407199999318,,10,186.69045569999435,186.70407199999318,186.70407199999318,0.02376949999597855,187.71591699999408,188.33429269999033,[np.float64(-0.385)],[np.float64(-0.4625)],[1],[0],[0],[1.6436093999946024],['Target'],Participant 5,001,2025-09-30_13h49.18.868,visual search task,,2025.1.1,59.99613625258106,2025-09-30 13h49.33.210576 +0530,
143,0,143,[np.float64(0.17416666666666666)],[np.float64(-0.22916666666666666)],[1],[0],[0],[0.995059000008041],['Target'],143,0,143,0,188.3712710999971,,10,188.3589457999915,188.3712710999971,188.3712710999971,0.02437830000417307,,189.35418849998678,[np.float64(0.17416666666666666)],[np.float64(-0.22916666666666666)],[1],[0],[0],[0.995059000008041],['Target'],Participant 5,001,2025-09-30_13h49.18.868,visual search task,,2025.1.1,59.99613625258106,2025-09-30 13h49.33.210576 +0530,
144,0,144,[np.float64(0.3575)],[np.float64(0.11166666666666666)],[1],[0],[0],[0.9518173999967985],['Target'],144,0,144,0,189.37809019999986,,5,189.36871849998715,189.37809019999986,189.37809019999986,0.014309599995613098,,190.32073300000047,[np.float64(0.3575)],[np.float64(0.11166666666666666)],[1],[0],[0],[0.9518173999967985],['Target'],Participant 5,001,2025-09-30_13h49.18.868,visual search task,,2025.1.1,59.99613625258106,2025-09-30 13h49.33.210576 +0530,
145,0,145,[np.float64(0.0775)],[np.float64(0.20166666666666666)],[1],[0],[0],[1.0710796000057599],['Target'],145,0,145,0,190.34526679999544,,5,190.3346911999979,190.34526679999544,190.34526679999544,0.013819100000546314,191.35327219999454,191.405995299996,[np.float64(0.0775)],[np.float64(0.20166666666666666)],[1],[0],[0],[1.0710796000057599],['Target'],Participant 5,001,2025-09-30_13h49.18.868,visual search task,,2025.1.1,59.99613625258106,2025-09-30 13h49.33.210576 +0530,
146,0,146,"[np.float64(-0.4508333333333333), np.float64(-0.42833333333333334)]","[np.float64(0.1625), np.float64(0.19083333333333333)]","[1, 1]","[0, 0]","[0, 0]","[0.9581523000088055, 2.040790700004436]","[None, 'Target']",146,0,146,0,191.4423594999971,,10,191.43145920000097,191.4423594999971,191.4423594999971,0.025256399996578693,192.45403670000087,193.4724423999869,"[np.float64(-0.4508333333333333), np.float64(-0.42833333333333334)]","[np.float64(0.1625), np.float64(0.19083333333333333)]","[1, 1]","[0, 0]","[0, 0]","[0.9581523000088055, 2.040790700004436]","[None, 'Target']",Participant 5,001,2025-09-30_13h49.18.868,visual search task,,2025.1.1,59.99613625258106,2025-09-30 13h49.33.210576 +0530,
147,0,147,[np.float64(-0.1475)],[np.float64(0.11)],[1],[0],[0],[0.9573259000026155],['Target'],147,0,147,0,193.4933616999915,,5,193.48554660000082,193.4933616999915,193.4933616999915,0.012865800003055483,,194.44305139999778,[np.float64(-0.1475)],[np.float64(0.11)],[1],[0],[0],[0.9573259000026155],['Target'],Participant 5,001,2025-09-30_13h49.18.868,visual search task,,2025.1.1,59.99613625258106,2025-09-30 13h49.33.210576 +0530,
148,0,148,[np.float64(0.1025)],[np.float64(0.4525)],[1],[0],[0],[1.1046015000029001],['Target'],148,0,148,0,194.48257029999513,,10,194.47050299998955,194.48257029999513,194.48257029999513,0.027257999987341464,195.49114879999252,195.57530229999975,[np.float64(0.1025)],[np.float64(0.4525)],[1],[0],[0],[1.1046015000029001],['Target'],Participant 5,001,2025-09-30_13h49.18.868,visual search task,,2025.1.1,59.99613625258106,2025-09-30 13h49.33.210576 +0530,
149,0,149,"[np.float64(0.20333333333333334), np.float64(0.22)]","[np.float64(0.24), np.float64(0.23916666666666667)]","[1, 1]","[0, 0]","[0, 0]","[0.8610943999956362, 1.3941430999984732]","[None, 'Target']",149,0,149,0,195.61214099999052,,10,195.60018599999603,195.61214099999052,195.61214099999052,0.024672700004884973,196.62534129999403,196.9944877999951,"[np.float64(0.20333333333333334), np.float64(0.22)]","[np.float64(0.24), np.float64(0.23916666666666667)]","[1, 1]","[0, 0]","[0, 0]","[0.8610943999956362, 1.3941430999984732]","[None, 'Target']",Participant 5,001,2025-09-30_13h49.18.868,visual search task,,2025.1.1,59.99613625258106,2025-09-30 13h49.33.210576 +0530,
150,0,150,[np.float64(-0.32083333333333336)],[np.float64(0.37)],[1],[0],[0],[0.923632699996233],['Target'],150,0,150,0,197.03495909999765,,10,197.02304689999437,197.03495909999765,197.03495909999765,0.028398399997968227,,197.9469381999952,[np.float64(-0.32083333333333336)],[np.float64(0.37)],[1],[0],[0],[0.923632699996233],['Target'],Participant 5,001,2025-09-30_13h49.18.868,visual search task,,2025.1.1,59.99613625258106,2025-09-30 13h49.33.210576 +0530,
151,0,151,[np.float64(-0.0875)],[np.float64(0.056666666666666664)],[1],[0],[0],[0.9052449000009801],['Target'],151,0,151,0,197.98749769999995,,10,197.97496929999033,197.98749769999995,197.98749769999995,0.027798600000096485,,198.88039999999455,[np.float64(-0.0875)],[np.float64(0.056666666666666664)],[1],[0],[0],[0.9052449000009801],['Target'],Participant 5,001,2025-09-30_13h49.18.868,visual search task,,2025.1.1,59.99613625258106,2025-09-30 13h49.33.210576 +0530,
152,0,152,[np.float64(0.2)],[np.float64(0.38166666666666665)],[1],[0],[0],[0.9693180000031134],['Target'],152,0,152,0,198.90320209998754,,5,198.89493469998706,198.90320209998754,198.90320209998754,0.014341299989609979,,199.86445389999426,[np.float64(0.2)],[np.float64(0.38166666666666665)],[1],[0],[0],[0.9693180000031134],['Target'],Participant 5,001,2025-09-30_13h49.18.868,visual search task,,2025.1.1,59.99613625258106,2025-09-30 13h49.33.210576 +0530,
153,0,153,"[np.float64(0.31083333333333335), np.float64(0.3275)]","[np.float64(0.16416666666666666), np.float64(0.17666666666666667)]","[1, 1]","[0, 0]","[0, 0]","[0.9241034000006039, 1.7090807000058703]","[None, 'Target']",153,0,153,0,199.90453149999666,,10,199.89152269999613,199.90453149999666,199.90453149999666,0.026958400005241856,200.91369659999327,201.60080359999847,"[np.float64(0.31083333333333335), np.float64(0.3275)]","[np.float64(0.16416666666666666), np.float64(0.17666666666666667)]","[1, 1]","[0, 0]","[0, 0]","[0.9241034000006039, 1.7090807000058703]","[None, 'Target']",Participant 5,001,2025-09-30_13h49.18.868,visual search task,,2025.1.1,59.99613625258106,2025-09-30 13h49.33.210576 +0530,
154,0,154,[np.float64(0.36333333333333334)],[np.float64(0.21833333333333332)],[1],[0],[0],[0.7376141999993706],['Target'],154,0,154,0,201.62245879998954,,5,201.61425269999017,201.62245879998954,201.62245879998954,0.013208899996243417,,202.3520484999899,[np.float64(0.36333333333333334)],[np.float64(0.21833333333333332)],[1],[0],[0],[0.7376141999993706],['Target'],Participant 5,001,2025-09-30_13h49.18.868,visual search task,,2025.1.1,59.99613625258106,2025-09-30 13h49.33.210576 +0530,
155,0,155,[np.float64(0.4791666666666667)],[np.float64(0.2525)],[1],[0],[0],[0.7708935999980895],['Target'],155,0,155,0,202.37152519999654,,5,202.36386729999504,202.37152519999654,202.37152519999654,0.011694200002239086,,203.13495209999382,[np.float64(0.4791666666666667)],[np.float64(0.2525)],[1],[0],[0],[0.7708935999980895],['Target'],Participant 5,001,2025-09-30_13h49.18.868,visual search task,,2025.1.1,59.99613625258106,2025-09-30 13h49.33.210576 +0530,
156,0,156,[np.float64(-0.010833333333333334)],[np.float64(0.0016666666666666668)],[1],[0],[0],[2.257895999995526],['Target'],156,0,156,0,203.172986199992,,10,203.16132389999984,203.172986199992,203.172986199992,0.02618570000049658,204.18384699999297,205.4194143999921,[np.float64(-0.010833333333333334)],[np.float64(0.0016666666666666668)],[1],[0],[0],[2.257895999995526],['Target'],Participant 5,001,2025-09-30_13h49.18.868,visual search task,,2025.1.1,59.99613625258106,2025-09-30 13h49.33.210576 +0530,
157,0,157,"[np.float64(0.2991666666666667), np.float64(0.28)]","[np.float64(-0.10666666666666667), np.float64(-0.07583333333333334)]","[1, 1]","[0, 0]","[0, 0]","[0.8541123000031803, 1.3743188000080409]","[None, 'Target']",157,0,157,0,205.44119549999596,,5,205.4328378999926,205.44119549999596,205.44119549999596,0.01321520000055898,206.45295669999905,206.80737119998957,"[np.float64(0.2991666666666667), np.float64(0.28)]","[np.float64(-0.10666666666666667), np.float64(-0.07583333333333334)]","[1, 1]","[0, 0]","[0, 0]","[0.8541123000031803, 1.3743188000080409]","[None, 'Target']",Participant 5,001,2025-09-30_13h49.18.868,visual search task,,2025.1.1,59.99613625258106,2025-09-30 13h49.33.210576 +0530,
158,0,158,[np.float64(-0.0075)],[np.float64(0.4891666666666667)],[1],[0],[0],[0.8988455000071554],['Target'],158,0,158,0,206.832124499997,,5,206.82406329999503,206.832124499997,206.832124499997,0.016481099999509752,,207.72307249999722,[np.float64(-0.0075)],[np.float64(0.4891666666666667)],[1],[0],[0],[0.8988455000071554],['Target'],Participant 5,001,2025-09-30_13h49.18.868,visual search task,,2025.1.1,59.99613625258106,2025-09-30 13h49.33.210576 +0530,
159,0,159,[np.float64(0.045)],[np.float64(-0.23083333333333333)],[1],[0],[0],[1.3056679000001168],['Target'],159,0,159,0,207.74467909999657,,5,207.73540469999716,207.74467909999657,207.74467909999657,0.012224400008562952,208.75583949999418,209.04129049999756,[np.float64(0.045)],[np.float64(-0.23083333333333333)],[1],[0],[0],[1.3056679000001168],['Target'],Participant 5,001,2025-09-30_13h49.18.868,visual search task,,2025.1.1,59.99613625258106,2025-09-30 13h49.33.210576 +0530,
160,0,160,"[np.float64(0.31583333333333335), np.float64(0.345)]","[np.float64(-0.36916666666666664), np.float64(-0.395)]","[1, 1]","[0, 0]","[0, 0]","[1.305238000000827, 1.939727100005257]","[None, 'Target']",160,0,160,0,209.06297139999515,,5,209.05398859998968,209.06297139999515,209.06297139999515,0.012554100001580082,210.0735566999938,210.99390719999792,"[np.float64(0.31583333333333335), np.float64(0.345)]","[np.float64(-0.36916666666666664), np.float64(-0.395)]","[1, 1]","[0, 0]","[0, 0]","[1.305238000000827, 1.939727100005257]","[None, 'Target']",Participant 5,001,2025-09-30_13h49.18.868,visual search task,,2025.1.1,59.99613625258106,2025-09-30 13h49.33.210576 +0530,
161,0,161,[np.float64(-0.03666666666666667)],[np.float64(0.48)],[1],[0],[0],[1.0365970999991987],['Target'],161,0,161,0,211.0172104999947,,5,211.0080750999914,211.0172104999947,211.0172104999947,0.014000000010128133,212.02560009999434,212.0449043999979,[np.float64(-0.03666666666666667)],[np.float64(0.48)],[1],[0],[0],[1.0365970999991987],['Target'],Participant 5,001,2025-09-30_13h49.18.868,visual search task,,2025.1.1,59.99613625258106,2025-09-30 13h49.33.210576 +0530,
162,0,162,[np.float64(-0.07166666666666667)],[np.float64(-0.3433333333333333)],[1],[0],[0],[1.185833099996671],['Target'],162,0,162,0,212.06771959998878,,5,212.0589667999884,212.06771959998878,212.06771959998878,0.013892100003431551,213.07711769999878,213.24499359999027,[np.float64(-0.07166666666666667)],[np.float64(-0.3433333333333333)],[1],[0],[0],[1.185833099996671],['Target'],Participant 5,001,2025-09-30_13h49.18.868,visual search task,,2025.1.1,59.99613625258106,2025-09-30 13h49.33.210576 +0530,
163,0,163,[np.float64(-0.1)],[np.float64(-0.03166666666666667)],[1],[0],[0],[1.0561521999916295],['Target'],163,0,163,0,213.26814499999455,,5,213.25906440000108,213.26814499999455,213.26814499999455,0.013893700001062825,214.2778796999919,214.31538019998698,[np.float64(-0.1)],[np.float64(-0.03166666666666667)],[1],[0],[0],[1.0561521999916295],['Target'],Participant 5,001,2025-09-30_13h49.18.868,visual search task,,2025.1.1,59.99613625258106,2025-09-30 13h49.33.210576 +0530,
164,0,164,"[np.float64(0.06333333333333334), np.float64(0.0675), np.float64(0.075)]","[np.float64(-0.385), np.float64(-0.385), np.float64(-0.38416666666666666)]","[1, 1, 1]","[0, 0, 0]","[0, 0, 0]","[1.0039116999978432, 1.4204991000005975, 2.021876999991946]","[None, None, 'Target']",164,0,164,0,214.3358462999895,,5,214.32764920000045,214.3358462999895,214.3358462999895,0.012128599992138334,215.34648759999254,216.34971249999944,"[np.float64(0.06333333333333334), np.float64(0.0675), np.float64(0.075)]","[np.float64(-0.385), np.float64(-0.385), np.float64(-0.38416666666666666)]","[1, 1, 1]","[0, 0, 0]","[0, 0, 0]","[1.0039116999978432, 1.4204991000005975, 2.021876999991946]","[None, None, 'Target']",Participant 5,001,2025-09-30_13h49.18.868,visual search task,,2025.1.1,59.99613625258106,2025-09-30 13h49.33.210576 +0530,
165,0,165,[np.float64(-0.08166666666666667)],[np.float64(0.06916666666666667)],[1],[0],[0],[1.0684680999984266],['Target'],165,0,165,0,216.3737906999886,,5,216.36449279999943,216.3737906999886,216.3737906999886,0.014579199996660464,217.38173249999818,217.43314609999652,[np.float64(-0.08166666666666667)],[np.float64(0.06916666666666667)],[1],[0],[0],[1.0684680999984266],['Target'],Participant 5,001,2025-09-30_13h49.18.868,visual search task,,2025.1.1,59.99613625258106,2025-09-30 13h49.33.210576 +0530,
166,0,166,[np.float64(0.05416666666666667)],[np.float64(-0.35)],[1],[0],[0],[0.9889370000018971],['Target'],166,0,166,0,217.4768905999954,,10,217.46087629999965,217.4768905999954,217.4768905999954,0.027605600000242703,,218.4500512999948,[np.float64(0.05416666666666667)],[np.float64(-0.35)],[1],[0],[0],[0.9889370000018971],['Target'],Participant 5,001,2025-09-30_13h49.18.868,visual search task,,2025.1.1,59.99613625258106,2025-09-30 13h49.33.210576 +0530,
167,0,167,[np.float64(-0.265)],[np.float64(0.0925)],[1],[0],[0],[0.8070100000040838],['Target'],167,0,167,0,218.4709368999902,,5,218.4624436999875,218.4709368999902,218.4709368999902,0.012237899994943291,,219.2696156999882,[np.float64(-0.265)],[np.float64(0.0925)],[1],[0],[0],[0.8070100000040838],['Target'],Participant 5,001,2025-09-30_13h49.18.868,visual search task,,2025.1.1,59.99613625258106,2025-09-30 13h49.33.210576 +0530,
168,0,168,[np.float64(0.22416666666666665)],[np.float64(-0.0175)],[1],[0],[0],[1.069636400003219],['Target'],168,0,168,0,219.2927592999913,,5,219.28408739999577,219.2927592999913,219.2927592999913,0.014360200002556667,220.30176969998865,220.35400310000114,[np.float64(0.22416666666666665)],[np.float64(-0.0175)],[1],[0],[0],[1.069636400003219],['Target'],Participant 5,001,2025-09-30_13h49.18.868,visual search task,,2025.1.1,59.99613625258106,2025-09-30 13h49.33.210576 +0530,
169,0,169,[np.float64(0.3175)],[np.float64(-0.24166666666666667)],[1],[0],[0],[0.8893102000001818],['Target'],169,0,169,0,220.39533919999667,,10,220.38192239998898,220.39533919999667,220.39533919999667,0.02775169999222271,,221.27140739999595,[np.float64(0.3175)],[np.float64(-0.24166666666666667)],[1],[0],[0],[0.8893102000001818],['Target'],Participant 5,001,2025-09-30_13h49.18.868,visual search task,,2025.1.1,59.99613625258106,2025-09-30 13h49.33.210576 +0530,
170,0,170,[np.float64(-0.31416666666666665)],[np.float64(0.3883333333333333)],[1],[0],[0],[0.9372278999944683],['Target'],170,0,170,0,221.2951849999954,,5,221.28595279999718,221.2951849999954,221.2951849999954,0.01441220000560861,,222.2234146999981,[np.float64(-0.31416666666666665)],[np.float64(0.3883333333333333)],[1],[0],[0],[0.9372278999944683],['Target'],Participant 5,001,2025-09-30_13h49.18.868,visual search task,,2025.1.1,59.99613625258106,2025-09-30 13h49.33.210576 +0530,
171,0,171,[np.float64(-0.135)],[np.float64(0.45916666666666667)],[1],[0],[0],[0.7672955999878468],['Target'],171,0,171,0,222.24723759999324,,5,222.23804219999874,222.24723759999324,222.24723759999324,0.014408100003493018,,223.0056104999967,[np.float64(-0.135)],[np.float64(0.45916666666666667)],[1],[0],[0],[0.7672955999878468],['Target'],Participant 5,001,2025-09-30_13h49.18.868,visual search task,,2025.1.1,59.99613625258106,2025-09-30 13h49.33.210576 +0530,
172,0,172,[np.float64(-0.24083333333333334)],[np.float64(0.2608333333333333)],[1],[0],[0],[0.6580911000055494],['Target'],172,0,172,0,223.04630949998682,,10,223.03294239999377,223.04630949998682,223.04630949998682,0.0271634999953676,,223.69127070000104,[np.float64(-0.24083333333333334)],[np.float64(0.2608333333333333)],[1],[0],[0],[0.6580911000055494],['Target'],Participant 5,001,2025-09-30_13h49.18.868,visual search task,,2025.1.1,59.99613625258106,2025-09-30 13h49.33.210576 +0530,
173,0,173,"[np.float64(-0.31583333333333335), np.float64(-0.32083333333333336), np.float64(-0.36), np.float64(-0.36), np.float64(-0.36), np.float64(-0.355), np.float64(-0.355), np.float64(-0.33666666666666667)]","[np.float64(0.16666666666666666), np.float64(0.14916666666666667), np.float64(0.11), np.float64(0.11), np.float64(0.11), np.float64(0.11), np.float64(0.11), np.float64(0.11666666666666667)]","[1, 1, 1, 1, 1, 1, 1, 1]","[0, 0, 0, 0, 0, 0, 0, 0]","[0, 0, 0, 0, 0, 0, 0, 0]","[0.6205666000023484, 1.0697645000036573, 1.6206263000058243, 2.052945899995393, 2.371388300001854, 2.855627299999469, 3.0885297000058927, 4.122821900004055]","[None, None, None, None, None, None, None, 'Target']",173,0,173,0,223.71484649999184,,5,223.70509679999668,223.71484649999184,223.71484649999184,0.01358849999087397,224.72304139999324,227.8280870999879,"[np.float64(-0.31583333333333335), np.float64(-0.32083333333333336), np.float64(-0.36), np.float64(-0.36), np.float64(-0.36), np.float64(-0.355), np.float64(-0.355), np.float64(-0.33666666666666667)]","[np.float64(0.16666666666666666), np.float64(0.14916666666666667), np.float64(0.11), np.float64(0.11), np.float64(0.11), np.float64(0.11), np.float64(0.11), np.float64(0.11666666666666667)]","[1, 1, 1, 1, 1, 1, 1, 1]","[0, 0, 0, 0, 0, 0, 0, 0]","[0, 0, 0, 0, 0, 0, 0, 0]","[0.6205666000023484, 1.0697645000036573, 1.6206263000058243, 2.052945899995393, 2.371388300001854, 2.855627299999469, 3.0885297000058927, 4.122821900004055]","[None, None, None, None, None, None, None, 'Target']",Participant 5,001,2025-09-30_13h49.18.868,visual search task,,2025.1.1,59.99613625258106,2025-09-30 13h49.33.210576 +0530,
174,0,174,[np.float64(0.2775)],[np.float64(0.49916666666666665)],[1],[0],[0],[1.3879253000050085],['Target'],174,0,174,0,227.8501064999873,,5,227.84201909998956,227.8501064999873,227.8501064999873,0.013613200004328974,228.86097289998725,229.2301512999984,[np.float64(0.2775)],[np.float64(0.49916666666666665)],[1],[0],[0],[1.3879253000050085],['Target'],Participant 5,001,2025-09-30_13h49.18.868,visual search task,,2025.1.1,59.99613625258106,2025-09-30 13h49.33.210576 +0530,
175,0,175,[np.float64(-0.01)],[np.float64(0.44333333333333336)],[1],[0],[0],[0.8909682999947108],['Target'],175,0,175,0,229.26900159999786,,10,229.25658549999935,229.26900159999786,229.26900159999786,0.02626359999703709,,230.14781689998927,[np.float64(-0.01)],[np.float64(0.44333333333333336)],[1],[0],[0],[0.8909682999947108],['Target'],Participant 5,001,2025-09-30_13h49.18.868,visual search task,,2025.1.1,59.99613625258106,2025-09-30 13h49.33.210576 +0530,
176,0,176,"[np.float64(-0.22916666666666666), np.float64(-0.24666666666666667)]","[np.float64(-0.3325), np.float64(-0.3541666666666667)]","[1, 1]","[0, 0]","[0, 0]","[1.1043001000070944, 1.8884385999990627]","[None, 'Target']",176,0,176,0,230.16986799999722,,5,230.16164559999015,230.16986799999722,230.16986799999722,0.01361150000593625,231.18046529999992,232.05027359999076,"[np.float64(-0.22916666666666666), np.float64(-0.24666666666666667)]","[np.float64(-0.3325), np.float64(-0.3541666666666667)]","[1, 1]","[0, 0]","[0, 0]","[1.1043001000070944, 1.8884385999990627]","[None, 'Target']",Participant 5,001,2025-09-30_13h49.18.868,visual search task,,2025.1.1,59.99613625258106,2025-09-30 13h49.33.210576 +0530,
177,0,177,[np.float64(-0.34833333333333333)],[np.float64(-0.37833333333333335)],[1],[0],[0],[1.2570570999960182],['Target'],177,0,177,0,232.0902700000006,,10,232.07731349999085,232.0902700000006,232.0902700000006,0.02684390000649728,233.09920209999837,233.33453429999645,[np.float64(-0.34833333333333333)],[np.float64(-0.37833333333333335)],[1],[0],[0],[1.2570570999960182],['Target'],Participant 5,001,2025-09-30_13h49.18.868,visual search task,,2025.1.1,59.99613625258106,2025-09-30 13h49.33.210576 +0530,
178,0,178,[np.float64(-0.2625)],[np.float64(-0.11416666666666667)],[1],[0],[0],[0.8688521000003675],['Target'],178,0,178,0,233.35891139999148,,5,233.34902959999454,233.35891139999148,233.35891139999148,0.014360600005602464,,234.2181031999935,[np.float64(-0.2625)],[np.float64(-0.11416666666666667)],[1],[0],[0],[0.8688521000003675],['Target'],Participant 5,001,2025-09-30_13h49.18.868,visual search task,,2025.1.1,59.99613625258106,2025-09-30 13h49.33.210576 +0530,
179,0,179,[np.float64(0.06166666666666667)],[np.float64(0.4766666666666667)],[1],[0],[0],[1.692486400002963],['Target'],179,0,179,0,234.25790779999807,,10,234.24571969998942,234.25790779999807,234.25790779999807,0.027437500000814907,235.26800109999022,235.9383889999881,[np.float64(0.06166666666666667)],[np.float64(0.4766666666666667)],[1],[0],[0],[1.692486400002963],['Target'],Participant 5,001,2025-09-30_13h49.18.868,visual search task,,2025.1.1,59.99613625258106,2025-09-30 13h49.33.210576 +0530,
180,0,180,[np.float64(-0.14166666666666666)],[np.float64(0.29)],[1],[0],[0],[0.936804500001017],['Target'],180,0,180,0,235.96120139998675,,5,235.95231529999,235.96120139998675,235.96120139998675,0.013729899990721606,,236.88931049998791,[np.float64(-0.14166666666666666)],[np.float64(0.29)],[1],[0],[0],[0.936804500001017],['Target'],Participant 5,001,2025-09-30_13h49.18.868,visual search task,,2025.1.1,59.99613625258106,2025-09-30 13h49.33.210576 +0530,
181,0,181,[np.float64(-0.19666666666666666)],[np.float64(0.13333333333333333)],[1],[0],[0],[0.8084881999966456],['Target'],181,0,181,0,236.92643279999902,,10,236.91516459999548,236.92643279999902,236.92643279999902,0.02568789999349974,,237.72383659999468,[np.float64(-0.19666666666666666)],[np.float64(0.13333333333333333)],[1],[0],[0],[0.8084881999966456],['Target'],Participant 5,001,2025-09-30_13h49.18.868,visual search task,,2025.1.1,59.99613625258106,2025-09-30 13h49.33.210576 +0530,
182,0,182,[np.float64(-0.08666666666666667)],[np.float64(-0.24416666666666667)],[1],[0],[0],[0.9250361000013072],['Target'],182,0,182,0,237.76327699999092,,10,237.74877949999063,237.76327699999092,237.76327699999092,0.02473669999744743,,238.67398009999306,[np.float64(-0.08666666666666667)],[np.float64(-0.24416666666666667)],[1],[0],[0],[0.9250361000013072],['Target'],Participant 5,001,2025-09-30_13h49.18.868,visual search task,,2025.1.1,59.99613625258106,2025-09-30 13h49.33.210576 +0530,
183,0,183,[np.float64(-0.33666666666666667)],[np.float64(0.013333333333333334)],[1],[0],[0],[0.7910545999911847],['Target'],183,0,183,0,238.71229939999466,,10,238.70095009999932,238.71229939999466,238.71229939999466,0.026806599998963065,,239.4921786999912,[np.float64(-0.33666666666666667)],[np.float64(0.013333333333333334)],[1],[0],[0],[0.7910545999911847],['Target'],Participant 5,001,2025-09-30_13h49.18.868,visual search task,,2025.1.1,59.99613625258106,2025-09-30 13h49.33.210576 +0530,
184,0,184,[np.float64(0.32)],[np.float64(0.12416666666666666)],[1],[0],[0],[1.3917081999970833],['Target'],184,0,184,0,239.53127089999907,,10,239.5182027999981,239.53127089999907,239.53127089999907,0.025829999998677522,240.5401714999898,240.91011699999217,[np.float64(0.32)],[np.float64(0.12416666666666666)],[1],[0],[0],[1.3917081999970833],['Target'],Participant 5,001,2025-09-30_13h49.18.868,visual search task,,2025.1.1,59.99613625258106,2025-09-30 13h49.33.210576 +0530,
185,0,185,"[np.float64(0.35), np.float64(0.33916666666666667)]","[np.float64(-0.4825), np.float64(-0.48083333333333333)]","[1, 1]","[0, 0]","[0, 0]","[2.2601010000071255, 2.775460999997449]","[None, 'Target']",185,0,185,0,240.94711759999336,,10,240.93549699999858,240.94711759999336,240.94711759999336,0.025140599987935275,241.95881769999687,243.71116099999927,"[np.float64(0.35), np.float64(0.33916666666666667)]","[np.float64(-0.4825), np.float64(-0.48083333333333333)]","[1, 1]","[0, 0]","[0, 0]","[2.2601010000071255, 2.775460999997449]","[None, 'Target']",Participant 5,001,2025-09-30_13h49.18.868,visual search task,,2025.1.1,59.99613625258106,2025-09-30 13h49.33.210576 +0530,
