thisN,thisTrialN,thisRepN,mouse.x,mouse.y,mouse.leftButton,mouse.midButton,mouse.rightButton,mouse.time,mouse.clicked_name,trials.thisRepN,trials.thisTrialN,trials.thisN,trials.thisIndex,thisRow.t,notes,num_distr,trial.started,fixation.started,Target.started,mouse.started,fixation.stopped,trial.stopped,trials.mouse.x,trials.mouse.y,trials.mouse.leftButton,trials.mouse.midButton,trials.mouse.rightButton,trials.mouse.time,trials.mouse.clicked_name,participant,session,date,expName,expVersion,psychopyVersion,frameRate,expStart,
0,0,0,"[np.float64(0.5225), np.float64(0.5025)]","[np.float64(0.33666666666666667), np.float64(0.33416666666666667)]","[1, 1]","[0, 0]","[0, 0]","[5.907711599997128, 6.689835999990464]","[None, 'Target']",0,0,0,0,0.052072600010433234,,10,0.037882500007981434,0.052072600010433234,0.052072600010433234,0.037908900005277246,1.052967700001318,6.727921400000923,"[np.float64(0.5225), np.float64(0.5025)]","[np.float64(0.33666666666666667), np.float64(0.33416666666666667)]","[1, 1]","[0, 0]","[0, 0]","[5.907711599997128, 6.689835999990464]","[None, 'Target']",participant 1,001,2025-09-30_13h19.48.322,visual search task,,2025.1.1,60.367335234958695,2025-09-30 13h20.04.264051 +0530,
1,0,1,"[np.float64(0.4633333333333333), np.float64(0.4625)]","[np.float64(0.1125), np.float64(0.14833333333333334)]","[1, 1]","[0, 0]","[0, 0]","[0.9690031000063755, 1.819608200006769]","[None, 'Target']",1,0,1,0,6.752696199997445,,5,6.743408900001668,6.752696199997445,6.752696199997445,0.015256300001055934,7.759931400010828,8.563202500008629,"[np.float64(0.4633333333333333), np.float64(0.4625)]","[np.float64(0.1125), np.float64(0.14833333333333334)]","[1, 1]","[0, 0]","[0, 0]","[0.9690031000063755, 1.819608200006769]","[None, 'Target']",participant 1,001,2025-09-30_13h19.48.322,visual search task,,2025.1.1,60.367335234958695,2025-09-30 13h20.04.264051 +0530,
2,0,2,[np.float64(0.48083333333333333)],[np.float64(0.04083333333333333)],[1],[0],[0],[1.340835299997707],['Target'],2,0,2,0,8.603935799997998,,10,8.590065500000492,8.603935799997998,8.603935799997998,0.026693299994803965,9.612002800000482,9.93111730000237,[np.float64(0.48083333333333333)],[np.float64(0.04083333333333333)],[1],[0],[0],[1.340835299997707],['Target'],participant 1,001,2025-09-30_13h19.48.322,visual search task,,2025.1.1,60.367335234958695,2025-09-30 13h20.04.264051 +0530,
3,0,3,[np.float64(-0.49666666666666665)],[np.float64(-0.135)],[1],[0],[0],[2.658064799994463],['Target'],3,0,3,0,9.973204000008991,,10,9.959214300004533,9.973204000008991,9.973204000008991,0.027875600004335865,10.979944500009879,12.617492999997921,[np.float64(-0.49666666666666665)],[np.float64(-0.135)],[1],[0],[0],[2.658064799994463],['Target'],participant 1,001,2025-09-30_13h19.48.322,visual search task,,2025.1.1,60.367335234958695,2025-09-30 13h20.04.264051 +0530,
4,0,4,"[np.float64(-0.17416666666666666), np.float64(-0.15083333333333335)]","[np.float64(0.15083333333333335), np.float64(0.14833333333333334)]","[1, 1]","[0, 0]","[0, 0]","[1.0521212000021478, 1.751937299995916]","[None, 'Target']",4,0,4,0,12.643439999999828,,5,12.633079799998086,12.643439999999828,12.643439999999828,0.01517009999952279,13.649772200005827,14.385262000010698,"[np.float64(-0.17416666666666666), np.float64(-0.15083333333333335)]","[np.float64(0.15083333333333335), np.float64(0.14833333333333334)]","[1, 1]","[0, 0]","[0, 0]","[1.0521212000021478, 1.751937299995916]","[None, 'Target']",participant 1,001,2025-09-30_13h19.48.322,visual search task,,2025.1.1,60.367335234958695,2025-09-30 13h20.04.264051 +0530,
5,0,5,[np.float64(0.235)],[np.float64(-0.3458333333333333)],[1],[0],[0],[1.7548463999992236],['Target'],5,0,5,0,14.428559599997243,,10,14.41584000000148,14.428559599997243,14.428559599997243,0.030020599995623343,15.43488200000138,16.170965700002853,[np.float64(0.235)],[np.float64(-0.3458333333333333)],[1],[0],[0],[1.7548463999992236],['Target'],participant 1,001,2025-09-30_13h19.48.322,visual search task,,2025.1.1,60.367335234958695,2025-09-30 13h20.04.264051 +0530,
6,0,6,[np.float64(-0.2608333333333333)],[np.float64(-0.09916666666666667)],[1],[0],[0],[1.5579512999975123],['Target'],6,0,6,0,16.210951100001694,,10,16.198404499999015,16.210951100001694,16.210951100001694,0.02697249999619089,17.220129900000757,17.756572600002983,[np.float64(-0.2608333333333333)],[np.float64(-0.09916666666666667)],[1],[0],[0],[1.5579512999975123],['Target'],participant 1,001,2025-09-30_13h19.48.322,visual search task,,2025.1.1,60.367335234958695,2025-09-30 13h20.04.264051 +0530,
7,0,7,[np.float64(-0.28833333333333333)],[np.float64(-0.2791666666666667)],[1],[0],[0],[1.0359725000016624],['Target'],7,0,7,0,17.780826200003503,,5,17.772026300008292,17.780826200003503,17.780826200003503,0.015222200003336184,18.788535700005013,18.80821870001091,[np.float64(-0.28833333333333333)],[np.float64(-0.2791666666666667)],[1],[0],[0],[1.0359725000016624],['Target'],participant 1,001,2025-09-30_13h19.48.322,visual search task,,2025.1.1,60.367335234958695,2025-09-30 13h20.04.264051 +0530,
8,0,8,[np.float64(0.4658333333333333)],[np.float64(-0.06)],[1],[0],[0],[1.4678106000064872],['Target'],8,0,8,0,18.834351800003788,,5,18.823835200004396,18.834351800003788,18.834351800003788,0.015443800002685748,19.839838200001395,20.291880200005835,[np.float64(0.4658333333333333)],[np.float64(-0.06)],[1],[0],[0],[1.4678106000064872],['Target'],participant 1,001,2025-09-30_13h19.48.322,visual search task,,2025.1.1,60.367335234958695,2025-09-30 13h20.04.264051 +0530,
9,0,9,"[np.float64(-0.27416666666666667), np.float64(-0.24583333333333332)]","[np.float64(0.11583333333333333), np.float64(0.11)]","[1, 1]","[0, 0]","[0, 0]","[1.123286600006395, 1.7071101000037743]","[None, 'Target']",9,0,9,0,20.312373400010983,,5,20.303949599998305,20.312373400010983,20.312373400010983,0.011943499994231388,21.324832600002992,22.01131610000448,"[np.float64(-0.27416666666666667), np.float64(-0.24583333333333332)]","[np.float64(0.11583333333333333), np.float64(0.11)]","[1, 1]","[0, 0]","[0, 0]","[1.123286600006395, 1.7071101000037743]","[None, 'Target']",participant 1,001,2025-09-30_13h19.48.322,visual search task,,2025.1.1,60.367335234958695,2025-09-30 13h20.04.264051 +0530,
10,0,10,"[np.float64(-0.4891666666666667), np.float64(-0.425)]","[np.float64(0.16166666666666665), np.float64(0.13666666666666666)]","[1, 1]","[0, 0]","[0, 0]","[0.7653762999980245, 1.1992253999924287]","[None, 'Target']",10,0,10,0,22.03941240000131,,5,22.029260399998748,22.03941240000131,22.03941240000131,0.017666300002019852,23.04315690000658,23.228705100002117,"[np.float64(-0.4891666666666667), np.float64(-0.425)]","[np.float64(0.16166666666666665), np.float64(0.13666666666666666)]","[1, 1]","[0, 0]","[0, 0]","[0.7653762999980245, 1.1992253999924287]","[None, 'Target']",participant 1,001,2025-09-30_13h19.48.322,visual search task,,2025.1.1,60.367335234958695,2025-09-30 13h20.04.264051 +0530,
11,0,11,[np.float64(0.4725)],[np.float64(0.23)],[1],[0],[0],[1.285370999990846],['Target'],11,0,11,0,23.25434369999857,,5,23.24495000000752,23.25434369999857,23.25434369999857,0.01597619999665767,24.260748800006695,24.530570700007956,[np.float64(0.4725)],[np.float64(0.23)],[1],[0],[0],[1.285370999990846],['Target'],participant 1,001,2025-09-30_13h19.48.322,visual search task,,2025.1.1,60.367335234958695,2025-09-30 13h20.04.264051 +0530,
12,0,12,[np.float64(-0.35083333333333333)],[np.float64(0.09166666666666666)],[1],[0],[0],[1.0228321000031428],['Target'],12,0,12,0,24.572869199997513,,10,24.55871830000251,24.572869199997513,24.572869199997513,0.027946100002736785,25.579228200003854,25.581772999998066,[np.float64(-0.35083333333333333)],[np.float64(0.09166666666666666)],[1],[0],[0],[1.0228321000031428],['Target'],participant 1,001,2025-09-30_13h19.48.322,visual search task,,2025.1.1,60.367335234958695,2025-09-30 13h20.04.264051 +0530,
13,0,13,"[np.float64(0.1025), np.float64(0.08833333333333333)]","[np.float64(-0.08333333333333333), np.float64(-0.07916666666666666)]","[1, 1]","[0, 0]","[0, 0]","[0.8901193999918178, 1.6389382999914233]","[None, 'Target']",13,0,13,0,25.602379800009658,,5,25.593714800008456,25.602379800009658,25.602379800009658,0.011782399989897385,26.61376010000822,27.232852700006333,"[np.float64(0.1025), np.float64(0.08833333333333333)]","[np.float64(-0.08333333333333333), np.float64(-0.07916666666666666)]","[1, 1]","[0, 0]","[0, 0]","[0.8901193999918178, 1.6389382999914233]","[None, 'Target']",participant 1,001,2025-09-30_13h19.48.322,visual search task,,2025.1.1,60.367335234958695,2025-09-30 13h20.04.264051 +0530,
14,0,14,[np.float64(0.30333333333333334)],[np.float64(-0.47583333333333333)],[1],[0],[0],[1.8380998999928124],['Target'],14,0,14,0,27.256944799999474,,5,27.247613600004115,27.256944799999474,27.256944799999474,0.014405499998247251,28.267877700011013,29.085927599997376,[np.float64(0.30333333333333334)],[np.float64(-0.47583333333333333)],[1],[0],[0],[1.8380998999928124],['Target'],participant 1,001,2025-09-30_13h19.48.322,visual search task,,2025.1.1,60.367335234958695,2025-09-30 13h20.04.264051 +0530,
15,0,15,"[np.float64(0.3933333333333333), np.float64(0.415)]","[np.float64(0.11833333333333333), np.float64(0.1175)]","[1, 1]","[0, 0]","[0, 0]","[1.4687106000055792, 2.002395000003162]","[None, 'Target']",15,0,15,0,29.111857900003088,,5,29.10098060000746,29.111857900003088,29.111857900003088,0.014878499991027638,30.117681500007166,31.103627100004815,"[np.float64(0.3933333333333333), np.float64(0.415)]","[np.float64(0.11833333333333333), np.float64(0.1175)]","[1, 1]","[0, 0]","[0, 0]","[1.4687106000055792, 2.002395000003162]","[None, 'Target']",participant 1,001,2025-09-30_13h19.48.322,visual search task,,2025.1.1,60.367335234958695,2025-09-30 13h20.04.264051 +0530,
16,0,16,[np.float64(-0.1675)],[np.float64(-0.2658333333333333)],[1],[0],[0],[1.1359203999891179],['Target'],16,0,16,0,31.129605699999956,,5,31.11955719999969,31.129605699999956,31.129605699999956,0.01571259999764152,32.136419600006775,32.255734300008044,[np.float64(-0.1675)],[np.float64(-0.2658333333333333)],[1],[0],[0],[1.1359203999891179],['Target'],participant 1,001,2025-09-30_13h19.48.322,visual search task,,2025.1.1,60.367335234958695,2025-09-30 13h20.04.264051 +0530,
17,0,17,[np.float64(-0.2608333333333333)],[np.float64(-0.2025)],[1],[0],[0],[0.8524013999995077],['Target'],17,0,17,0,32.28044120001141,,5,32.27077180000197,32.28044120001141,32.28044120001141,0.014860800001770258,,33.123396299997694,[np.float64(-0.2608333333333333)],[np.float64(-0.2025)],[1],[0],[0],[0.8524013999995077],['Target'],participant 1,001,2025-09-30_13h19.48.322,visual search task,,2025.1.1,60.367335234958695,2025-09-30 13h20.04.264051 +0530,
18,0,18,[np.float64(-0.2075)],[np.float64(-0.23083333333333333)],[1],[0],[0],[0.6521514999913052],['Target'],18,0,18,0,33.14901340000506,,5,33.138526200011256,33.14901340000506,33.14901340000506,0.01496640000550542,,33.790935299999546,[np.float64(-0.2075)],[np.float64(-0.23083333333333333)],[1],[0],[0],[0.6521514999913052],['Target'],participant 1,001,2025-09-30_13h19.48.322,visual search task,,2025.1.1,60.367335234958695,2025-09-30 13h20.04.264051 +0530,
19,0,19,[np.float64(0.3016666666666667)],[np.float64(-0.21916666666666668)],[1],[0],[0],[1.4682612999895355],['Target'],19,0,19,0,33.83567739999853,,10,33.82367920000979,33.83567739999853,33.83567739999853,0.03259489999618381,34.83973110000079,35.2921451000002,[np.float64(0.3016666666666667)],[np.float64(-0.21916666666666668)],[1],[0],[0],[1.4682612999895355],['Target'],participant 1,001,2025-09-30_13h19.48.322,visual search task,,2025.1.1,60.367335234958695,2025-09-30 13h20.04.264051 +0530,
20,0,20,[np.float64(-0.30916666666666665)],[np.float64(0.3775)],[1],[0],[0],[1.9251946000003954],['Target'],20,0,20,0,35.332903300004546,,10,35.32000430001062,35.332903300004546,35.332903300004546,0.027629399992292747,36.341288800002076,37.24544740001147,[np.float64(-0.30916666666666665)],[np.float64(0.3775)],[1],[0],[0],[1.9251946000003954],['Target'],participant 1,001,2025-09-30_13h19.48.322,visual search task,,2025.1.1,60.367335234958695,2025-09-30 13h20.04.264051 +0530,
21,0,21,[np.float64(0.24583333333333332)],[np.float64(0.08666666666666667)],[1],[0],[0],[1.376382599992212],['Target'],21,0,21,0,37.2833440000104,,10,37.26958010000817,37.2833440000104,37.2833440000104,0.02396930000395514,38.29365079999843,38.646190500003286,[np.float64(0.24583333333333332)],[np.float64(0.08666666666666667)],[1],[0],[0],[1.376382599992212],['Target'],participant 1,001,2025-09-30_13h19.48.322,visual search task,,2025.1.1,60.367335234958695,2025-09-30 13h20.04.264051 +0530,
22,0,22,[np.float64(-0.135)],[np.float64(-0.4125)],[1],[0],[0],[2.189412199993967],['Target'],22,0,22,0,38.68838730000425,,10,38.67594370000006,38.68838730000425,38.68838730000425,0.02951710000343155,39.69506260000344,40.86558420000074,[np.float64(-0.135)],[np.float64(-0.4125)],[1],[0],[0],[2.189412199993967],['Target'],participant 1,001,2025-09-30_13h19.48.322,visual search task,,2025.1.1,60.367335234958695,2025-09-30 13h20.04.264051 +0530,
23,0,23,[np.float64(0.3325)],[np.float64(0.03833333333333333)],[1],[0],[0],[1.20673779999197],['Target'],23,0,23,0,40.904440300000715,,10,40.89303849999851,40.904440300000715,40.904440300000715,0.02722209999046754,41.913762700001826,42.10003339999821,[np.float64(0.3325)],[np.float64(0.03833333333333333)],[1],[0],[0],[1.20673779999197],['Target'],participant 1,001,2025-09-30_13h19.48.322,visual search task,,2025.1.1,60.367335234958695,2025-09-30 13h20.04.264051 +0530,
24,0,24,[np.float64(0.38916666666666666)],[np.float64(0.09916666666666667)],[1],[0],[0],[0.6519661000056658],['Target'],24,0,24,0,42.12479100000928,,5,42.11512770000263,42.12479100000928,42.12479100000928,0.014924600007361732,,42.767359100005706,[np.float64(0.38916666666666666)],[np.float64(0.09916666666666667)],[1],[0],[0],[0.6519661000056658],['Target'],participant 1,001,2025-09-30_13h19.48.322,visual search task,,2025.1.1,60.367335234958695,2025-09-30 13h20.04.264051 +0530,
25,0,25,[np.float64(-0.09)],[np.float64(0.41333333333333333)],[1],[0],[0],[1.65344969999569],['Target'],25,0,25,0,42.7918226000038,,5,42.782332400005544,42.7918226000038,42.7918226000038,0.014794000002439134,43.799463600007584,44.43603959999746,[np.float64(-0.09)],[np.float64(0.41333333333333333)],[1],[0],[0],[1.65344969999569],['Target'],participant 1,001,2025-09-30_13h19.48.322,visual search task,,2025.1.1,60.367335234958695,2025-09-30 13h20.04.264051 +0530,
26,0,26,[np.float64(-0.3466666666666667)],[np.float64(0.3591666666666667)],[1],[0],[0],[1.769139299998642],['Target'],26,0,26,0,44.48125510000682,,10,44.468570299999556,44.48125510000682,44.48125510000682,0.03234800000791438,45.484470900002634,46.23795940000855,[np.float64(-0.3466666666666667)],[np.float64(0.3591666666666667)],[1],[0],[0],[1.769139299998642],['Target'],participant 1,001,2025-09-30_13h19.48.322,visual search task,,2025.1.1,60.367335234958695,2025-09-30 13h20.04.264051 +0530,
27,0,27,[np.float64(0.4)],[np.float64(0.48833333333333334)],[1],[0],[0],[2.503693000006024],['Target'],27,0,27,0,46.2637751000002,,5,46.25348820000363,46.2637751000002,46.2637751000002,0.015330599999288097,47.27008440000645,48.75741010000638,[np.float64(0.4)],[np.float64(0.48833333333333334)],[1],[0],[0],[2.503693000006024],['Target'],participant 1,001,2025-09-30_13h19.48.322,visual search task,,2025.1.1,60.367335234958695,2025-09-30 13h20.04.264051 +0530,
28,0,28,[np.float64(-0.07333333333333333)],[np.float64(0.034166666666666665)],[1],[0],[0],[1.538695800001733],['Target'],28,0,28,0,48.79978380000102,,10,48.78609770000912,48.79978380000102,48.79978380000102,0.02856249999604188,49.805671300011454,50.325054400003864,[np.float64(-0.07333333333333333)],[np.float64(0.034166666666666665)],[1],[0],[0],[1.538695800001733],['Target'],participant 1,001,2025-09-30_13h19.48.322,visual search task,,2025.1.1,60.367335234958695,2025-09-30 13h20.04.264051 +0530,
29,0,29,[np.float64(0.07666666666666666)],[np.float64(-0.034166666666666665)],[1],[0],[0],[0.8890195999993011],['Target'],29,0,29,0,50.36715200000617,,10,50.35294209999847,50.36715200000617,50.36715200000617,0.027678799990098923,,51.24221250000119,[np.float64(0.07666666666666666)],[np.float64(-0.034166666666666665)],[1],[0],[0],[0.8890195999993011],['Target'],participant 1,001,2025-09-30_13h19.48.322,visual search task,,2025.1.1,60.367335234958695,2025-09-30 13h20.04.264051 +0530,
30,0,30,[np.float64(0.4025)],[np.float64(-0.335)],[1],[0],[0],[1.2375986000115518],['Target'],30,0,30,0,51.265474200001336,,5,51.25742870000249,51.265474200001336,51.265474200001336,0.014997499994933605,52.275114400006714,52.49521770000865,[np.float64(0.4025)],[np.float64(-0.335)],[1],[0],[0],[1.2375986000115518],['Target'],participant 1,001,2025-09-30_13h19.48.322,visual search task,,2025.1.1,60.367335234958695,2025-09-30 13h20.04.264051 +0530,
31,0,31,"[np.float64(0.17083333333333334), np.float64(0.145)]","[np.float64(0.4816666666666667), np.float64(0.4658333333333333)]","[1, 1]","[0, 0]","[0, 0]","[2.023020099994028, 2.556646400000318]","[None, 'Target']",31,0,31,0,52.5365579000063,,10,52.52351820000331,52.5365579000063,52.5365579000063,0.02815800000098534,53.54338889999781,55.08036560000619,"[np.float64(0.17083333333333334), np.float64(0.145)]","[np.float64(0.4816666666666667), np.float64(0.4658333333333333)]","[1, 1]","[0, 0]","[0, 0]","[2.023020099994028, 2.556646400000318]","[None, 'Target']",participant 1,001,2025-09-30_13h19.48.322,visual search task,,2025.1.1,60.367335234958695,2025-09-30 13h20.04.264051 +0530,
32,0,32,[np.float64(0.4058333333333333)],[np.float64(-0.24583333333333332)],[1],[0],[0],[1.3097206000093138],['Target'],32,0,32,0,55.11803019999934,,10,55.10593200000585,55.11803019999934,55.11803019999934,0.02539039999828674,56.1296854000102,56.41588000000047,[np.float64(0.4058333333333333)],[np.float64(-0.24583333333333332)],[1],[0],[0],[1.3097206000093138],['Target'],participant 1,001,2025-09-30_13h19.48.322,visual search task,,2025.1.1,60.367335234958695,2025-09-30 13h20.04.264051 +0530,
33,0,33,[np.float64(-0.06916666666666667)],[np.float64(0.3075)],[1],[0],[0],[1.5165720000077272],['Target'],33,0,33,0,56.44436730000598,,5,56.43413180000789,56.44436730000598,56.44436730000598,0.017989200001466088,57.447696500006714,57.95096560000093,[np.float64(-0.06916666666666667)],[np.float64(0.3075)],[1],[0],[0],[1.5165720000077272],['Target'],participant 1,001,2025-09-30_13h19.48.322,visual search task,,2025.1.1,60.367335234958695,2025-09-30 13h20.04.264051 +0530,
34,0,34,"[np.float64(-0.0225), np.float64(-0.013333333333333334), np.float64(-0.0008333333333333334)]","[np.float64(-0.24416666666666667), np.float64(-0.24083333333333334), np.float64(-0.23833333333333334)]","[1, 1, 1]","[0, 0, 0]","[0, 0, 0]","[1.4366688999871258, 1.886977099988144, 2.4042224000004353]","[None, None, 'Target']",34,0,34,0,57.994329200009815,,10,57.981370300010894,57.994329200009815,57.994329200009815,0.030145299999276176,58.99937940000382,60.38586480000231,"[np.float64(-0.0225), np.float64(-0.013333333333333334), np.float64(-0.0008333333333333334)]","[np.float64(-0.24416666666666667), np.float64(-0.24083333333333334), np.float64(-0.23833333333333334)]","[1, 1, 1]","[0, 0, 0]","[0, 0, 0]","[1.4366688999871258, 1.886977099988144, 2.4042224000004353]","[None, None, 'Target']",participant 1,001,2025-09-30_13h19.48.322,visual search task,,2025.1.1,60.367335234958695,2025-09-30 13h20.04.264051 +0530,
35,0,35,[np.float64(0.3225)],[np.float64(0.345)],[1],[0],[0],[1.889271899999585],['Target'],35,0,35,0,60.42934160000004,,10,60.415533300008974,60.42934160000004,60.42934160000004,0.02941219999047462,61.43508960001054,62.3051012000069,[np.float64(0.3225)],[np.float64(0.345)],[1],[0],[0],[1.889271899999585],['Target'],participant 1,001,2025-09-30_13h19.48.322,visual search task,,2025.1.1,60.367335234958695,2025-09-30 13h20.04.264051 +0530,
36,0,36,[np.float64(0.4683333333333333)],[np.float64(-0.4583333333333333)],[1],[0],[0],[1.770671600010246],['Target'],36,0,36,0,62.329331400003866,,5,62.319910400008666,62.329331400003866,62.329331400003866,0.014564500001142733,63.33762299999944,64.09081320000405,[np.float64(0.4683333333333333)],[np.float64(-0.4583333333333333)],[1],[0],[0],[1.770671600010246],['Target'],participant 1,001,2025-09-30_13h19.48.322,visual search task,,2025.1.1,60.367335234958695,2025-09-30 13h20.04.264051 +0530,
37,0,37,"[np.float64(-0.10083333333333333), np.float64(-0.12166666666666667)]","[np.float64(0.058333333333333334), np.float64(0.058333333333333334)]","[1, 1]","[0, 0]","[0, 0]","[1.2070824000111315, 1.7738848000008147]","[None, 'Target']",37,0,37,0,64.13120070000878,,10,64.11785110000346,64.13120070000878,64.13120070000878,0.026897499992628582,65.13915899999847,65.89199050000752,"[np.float64(-0.10083333333333333), np.float64(-0.12166666666666667)]","[np.float64(0.058333333333333334), np.float64(0.058333333333333334)]","[1, 1]","[0, 0]","[0, 0]","[1.2070824000111315, 1.7738848000008147]","[None, 'Target']",participant 1,001,2025-09-30_13h19.48.322,visual search task,,2025.1.1,60.367335234958695,2025-09-30 13h20.04.264051 +0530,
38,0,38,[np.float64(-0.0475)],[np.float64(0.045)],[1],[0],[0],[0.758434400006081],['Target'],38,0,38,0,65.93074350000825,,10,65.9179562000063,65.93074350000825,65.93074350000825,0.02578489998995792,,66.67657960001088,[np.float64(-0.0475)],[np.float64(0.045)],[1],[0],[0],[0.758434400006081],['Target'],participant 1,001,2025-09-30_13h19.48.322,visual search task,,2025.1.1,60.367335234958695,2025-09-30 13h20.04.264051 +0530,
39,0,39,[np.float64(-0.32666666666666666)],[np.float64(0.1875)],[1],[0],[0],[1.65397220000159],['Target'],39,0,39,0,66.70110040000873,,5,66.69117550000374,66.70110040000873,66.70110040000873,0.014446100001805462,67.7087545000104,68.34537710000586,[np.float64(-0.32666666666666666)],[np.float64(0.1875)],[1],[0],[0],[1.65397220000159],['Target'],participant 1,001,2025-09-30_13h19.48.322,visual search task,,2025.1.1,60.367335234958695,2025-09-30 13h20.04.264051 +0530,
40,0,40,[np.float64(0.17083333333333334)],[np.float64(0.08916666666666667)],[1],[0],[0],[1.0557645999942906],['Target'],40,0,40,0,68.38931800000137,,10,68.37436590000289,68.38931800000137,68.38931800000137,0.028860699996585026,69.39400530001149,69.4303968000022,[np.float64(0.17083333333333334)],[np.float64(0.08916666666666667)],[1],[0],[0],[1.0557645999942906],['Target'],participant 1,001,2025-09-30_13h19.48.322,visual search task,,2025.1.1,60.367335234958695,2025-09-30 13h20.04.264051 +0530,
41,0,41,[np.float64(-0.24)],[np.float64(-0.1275)],[1],[0],[0],[1.156705499990494],['Target'],41,0,41,0,69.46942380000837,,10,69.45745430000534,69.46942380000837,69.46942380000837,0.026821699997526594,70.47915739999735,70.61436530000356,[np.float64(-0.24)],[np.float64(-0.1275)],[1],[0],[0],[1.156705499990494],['Target'],participant 1,001,2025-09-30_13h19.48.322,visual search task,,2025.1.1,60.367335234958695,2025-09-30 13h20.04.264051 +0530,
42,0,42,[np.float64(-0.4066666666666667)],[np.float64(-0.45916666666666667)],[1],[0],[0],[1.503793099996983],['Target'],42,0,42,0,70.63928060000762,,5,70.62956750000012,70.63928060000762,70.63928060000762,0.015038400000776164,71.64678260000073,72.1335962000012,[np.float64(-0.4066666666666667)],[np.float64(-0.45916666666666667)],[1],[0],[0],[1.503793099996983],['Target'],participant 1,001,2025-09-30_13h19.48.322,visual search task,,2025.1.1,60.367335234958695,2025-09-30 13h20.04.264051 +0530,
43,0,43,[np.float64(0.1525)],[np.float64(0.2841666666666667)],[1],[0],[0],[1.3514348000026075],['Target'],43,0,43,0,72.15869470000325,,5,72.14893650000158,72.15869470000325,72.15869470000325,0.015161100003751926,73.16482309999992,73.5005996000109,[np.float64(0.1525)],[np.float64(0.2841666666666667)],[1],[0],[0],[1.3514348000026075],['Target'],participant 1,001,2025-09-30_13h19.48.322,visual search task,,2025.1.1,60.367335234958695,2025-09-30 13h20.04.264051 +0530,
44,0,44,[np.float64(0.1875)],[np.float64(-0.4083333333333333)],[1],[0],[0],[1.5860848000011174],['Target'],44,0,44,0,73.52615220000735,,5,73.51606320000428,73.52615220000735,73.52615220000735,0.01533460000064224,74.53301569999894,75.10237600000983,[np.float64(0.1875)],[np.float64(-0.4083333333333333)],[1],[0],[0],[1.5860848000011174],['Target'],participant 1,001,2025-09-30_13h19.48.322,visual search task,,2025.1.1,60.367335234958695,2025-09-30 13h20.04.264051 +0530,
45,0,45,"[np.float64(-0.2875), np.float64(-0.30916666666666665)]","[np.float64(-0.075), np.float64(-0.075)]","[1, 1]","[0, 0]","[0, 0]","[1.0893711999960942, 1.6728418999991845]","[None, 'Target']",45,0,45,0,75.14404939999804,,10,75.13095580000663,75.14404939999804,75.14404939999804,0.02841860000626184,76.15140410000458,76.80404519999865,"[np.float64(-0.2875), np.float64(-0.30916666666666665)]","[np.float64(-0.075), np.float64(-0.075)]","[1, 1]","[0, 0]","[0, 0]","[1.0893711999960942, 1.6728418999991845]","[None, 'Target']",participant 1,001,2025-09-30_13h19.48.322,visual search task,,2025.1.1,60.367335234958695,2025-09-30 13h20.04.264051 +0530,
46,0,46,[np.float64(0.3933333333333333)],[np.float64(0.0675)],[1],[0],[0],[1.269406000006711],['Target'],46,0,46,0,76.82923160000064,,5,76.81991320000088,76.82923160000064,76.82923160000064,0.015577400001347996,77.83625050001137,78.08958270000585,[np.float64(0.3933333333333333)],[np.float64(0.0675)],[1],[0],[0],[1.269406000006711],['Target'],participant 1,001,2025-09-30_13h19.48.322,visual search task,,2025.1.1,60.367335234958695,2025-09-30 13h20.04.264051 +0530,
47,0,47,"[np.float64(-0.36916666666666664), np.float64(-0.3516666666666667)]","[np.float64(0.005), np.float64(0.0075)]","[1, 1]","[0, 0]","[0, 0]","[1.0861453000106849, 1.6197753000014927]","[None, 'Target']",47,0,47,0,78.11395759999868,,5,78.10413130000234,78.11395759999868,78.11395759999868,0.014311200007796288,79.12115300000005,79.72415449999971,"[np.float64(-0.36916666666666664), np.float64(-0.3516666666666667)]","[np.float64(0.005), np.float64(0.0075)]","[1, 1]","[0, 0]","[0, 0]","[1.0861453000106849, 1.6197753000014927]","[None, 'Target']",participant 1,001,2025-09-30_13h19.48.322,visual search task,,2025.1.1,60.367335234958695,2025-09-30 13h20.04.264051 +0530,
48,0,48,[np.float64(-0.16166666666666665)],[np.float64(0.04416666666666667)],[1],[0],[0],[0.7048348000098485],['Target'],48,0,48,0,79.76767900001141,,10,79.75359089999984,79.76767900001141,79.76767900001141,0.029225400008726865,,80.45868260000134,[np.float64(-0.16166666666666665)],[np.float64(0.04416666666666667)],[1],[0],[0],[0.7048348000098485],['Target'],participant 1,001,2025-09-30_13h19.48.322,visual search task,,2025.1.1,60.367335234958695,2025-09-30 13h20.04.264051 +0530,
49,0,49,[np.float64(-0.485)],[np.float64(0.29)],[1],[0],[0],[1.0514019999973243],['Target'],49,0,49,0,80.48587640000915,,5,80.47589290000906,80.48587640000915,80.48587640000915,0.016977099992800504,81.49161969999841,81.52751140001055,[np.float64(-0.485)],[np.float64(0.29)],[1],[0],[0],[1.0514019999973243],['Target'],participant 1,001,2025-09-30_13h19.48.322,visual search task,,2025.1.1,60.367335234958695,2025-09-30 13h20.04.264051 +0530,
50,0,50,"[np.float64(-0.36333333333333334), np.float64(-0.3475)]","[np.float64(-0.44), np.float64(-0.44)]","[1, 1]","[0, 0]","[0, 0]","[1.4381087999936426, 1.8547981999872718]","[None, 'Target']",50,0,50,0,81.54938280000351,,5,81.53984880000644,81.54938280000351,81.54938280000351,0.0121993999928236,82.55860100001155,83.39486200000101,"[np.float64(-0.36333333333333334), np.float64(-0.3475)]","[np.float64(-0.44), np.float64(-0.44)]","[1, 1]","[0, 0]","[0, 0]","[1.4381087999936426, 1.8547981999872718]","[None, 'Target']",participant 1,001,2025-09-30_13h19.48.322,visual search task,,2025.1.1,60.367335234958695,2025-09-30 13h20.04.264051 +0530,
51,0,51,[np.float64(-0.3616666666666667)],[np.float64(-0.21416666666666667)],[1],[0],[0],[0.993328600001405],['Target'],51,0,51,0,83.43460730000515,,10,83.42207169999892,83.43460730000515,83.43460730000515,0.026964100004988723,,84.41570680000586,[np.float64(-0.3616666666666667)],[np.float64(-0.21416666666666667)],[1],[0],[0],[0.993328600001405],['Target'],participant 1,001,2025-09-30_13h19.48.322,visual search task,,2025.1.1,60.367335234958695,2025-09-30 13h20.04.264051 +0530,
52,0,52,[np.float64(0.04416666666666667)],[np.float64(-0.47583333333333333)],[1],[0],[0],[2.0225465999974404],['Target'],52,0,52,0,84.45525300000736,,10,84.44246320000093,84.45525300000736,84.45525300000736,0.026538899997831322,85.46185340000375,86.46521049999865,[np.float64(0.04416666666666667)],[np.float64(-0.47583333333333333)],[1],[0],[0],[2.0225465999974404],['Target'],participant 1,001,2025-09-30_13h19.48.322,visual search task,,2025.1.1,60.367335234958695,2025-09-30 13h20.04.264051 +0530,
53,0,53,[np.float64(0.4875)],[np.float64(0.4225)],[1],[0],[0],[2.0429090000106953],['Target'],53,0,53,0,86.50475780000852,,10,86.49161510000704,86.50475780000852,86.50475780000852,0.02624170000490267,87.51394900000014,88.53473240000312,[np.float64(0.4875)],[np.float64(0.4225)],[1],[0],[0],[2.0429090000106953],['Target'],participant 1,001,2025-09-30_13h19.48.322,visual search task,,2025.1.1,60.367335234958695,2025-09-30 13h20.04.264051 +0530,
54,0,54,[np.float64(-0.30666666666666664)],[np.float64(0.135)],[1],[0],[0],[1.1534591999952681],['Target'],54,0,54,0,88.55723859999853,,5,88.54858070000773,88.55723859999853,88.55723859999853,0.013680199990631081,89.56621930000256,89.70227449999948,[np.float64(-0.30666666666666664)],[np.float64(0.135)],[1],[0],[0],[1.1534591999952681],['Target'],participant 1,001,2025-09-30_13h19.48.322,visual search task,,2025.1.1,60.367335234958695,2025-09-30 13h20.04.264051 +0530,
55,0,55,[np.float64(-0.4683333333333333)],[np.float64(-0.245)],[1],[0],[0],[0.9020197999925585],['Target'],55,0,55,0,89.72826250000799,,5,89.717398400011,89.72826250000799,89.72826250000799,0.014935599989257753,,90.61967050000385,[np.float64(-0.4683333333333333)],[np.float64(-0.245)],[1],[0],[0],[0.9020197999925585],['Target'],participant 1,001,2025-09-30_13h19.48.322,visual search task,,2025.1.1,60.367335234958695,2025-09-30 13h20.04.264051 +0530,
56,0,56,[np.float64(0.24083333333333334)],[np.float64(0.08583333333333333)],[1],[0],[0],[1.1735325999907218],['Target'],56,0,56,0,90.66159290001087,,10,90.64717570001085,90.66159290001087,90.66159290001087,0.027313699989463203,91.66850929999782,91.82091510000464,[np.float64(0.24083333333333334)],[np.float64(0.08583333333333333)],[1],[0],[0],[1.1735325999907218],['Target'],participant 1,001,2025-09-30_13h19.48.322,visual search task,,2025.1.1,60.367335234958695,2025-09-30 13h20.04.264051 +0530,
57,0,57,[np.float64(-0.3375)],[np.float64(-0.0016666666666666668)],[1],[0],[0],[1.1210710000013933],['Target'],57,0,57,0,91.84659770000144,,5,91.83624180000334,91.84659770000144,91.84659770000144,0.015182800008915365,92.85303199999908,92.95751970000856,[np.float64(-0.3375)],[np.float64(-0.0016666666666666668)],[1],[0],[0],[1.1210710000013933],['Target'],participant 1,001,2025-09-30_13h19.48.322,visual search task,,2025.1.1,60.367335234958695,2025-09-30 13h20.04.264051 +0530,
58,0,58,[np.float64(0.4091666666666667)],[np.float64(0.4608333333333333)],[1],[0],[0],[1.0532960999989882],['Target'],58,0,58,0,92.97805980000703,,5,92.96933480000007,92.97805980000703,92.97805980000703,0.011694500004523434,93.98727599999984,94.02283210000314,[np.float64(0.4091666666666667)],[np.float64(0.4608333333333333)],[1],[0],[0],[1.0532960999989882],['Target'],participant 1,001,2025-09-30_13h19.48.322,visual search task,,2025.1.1,60.367335234958695,2025-09-30 13h20.04.264051 +0530,
59,0,59,[np.float64(-0.32083333333333336)],[np.float64(0.22333333333333333)],[1],[0],[0],[0.9530917000083718],['Target'],59,0,59,0,94.04717840001103,,5,94.03767109999899,94.04717840001103,94.04717840001103,0.014506299994536676,,94.99107139999978,[np.float64(-0.32083333333333336)],[np.float64(0.22333333333333333)],[1],[0],[0],[0.9530917000083718],['Target'],participant 1,001,2025-09-30_13h19.48.322,visual search task,,2025.1.1,60.367335234958695,2025-09-30 13h20.04.264051 +0530,
60,0,60,[np.float64(0.07916666666666666)],[np.float64(0.21333333333333335)],[1],[0],[0],[0.9567398999934085],['Target'],60,0,60,0,95.03145110000332,,10,95.01826540000911,95.03145110000332,95.03145110000332,0.02694720000727102,,95.97533909999765,[np.float64(0.07916666666666666)],[np.float64(0.21333333333333335)],[1],[0],[0],[0.9567398999934085],['Target'],participant 1,001,2025-09-30_13h19.48.322,visual search task,,2025.1.1,60.367335234958695,2025-09-30 13h20.04.264051 +0530,
61,0,61,"[np.float64(0.016666666666666666), np.float64(-0.009166666666666667)]","[np.float64(0.2625), np.float64(0.265)]","[1, 1]","[0, 0]","[0, 0]","[0.534873399999924, 1.084633299993584]","[None, 'Target']",61,0,61,0,96.00068009999814,,5,95.99112430000969,96.00068009999814,96.00068009999814,0.015587100002449006,97.00776760000736,97.0760231000022,"[np.float64(0.016666666666666666), np.float64(-0.009166666666666667)]","[np.float64(0.2625), np.float64(0.265)]","[1, 1]","[0, 0]","[0, 0]","[0.534873399999924, 1.084633299993584]","[None, 'Target']",participant 1,001,2025-09-30_13h19.48.322,visual search task,,2025.1.1,60.367335234958695,2025-09-30 13h20.04.264051 +0530,
62,0,62,[np.float64(0.25416666666666665)],[np.float64(-0.11)],[1],[0],[0],[1.62469830000191],['Target'],62,0,62,0,97.11724370000593,,10,97.10291460000735,97.11724370000593,97.11724370000593,0.026660700008505955,98.12522370000079,98.72781650000252,[np.float64(0.25416666666666665)],[np.float64(-0.11)],[1],[0],[0],[1.62469830000191],['Target'],participant 1,001,2025-09-30_13h19.48.322,visual search task,,2025.1.1,60.367335234958695,2025-09-30 13h20.04.264051 +0530,
63,0,63,[np.float64(0.455)],[np.float64(-0.3308333333333333)],[1],[0],[0],[0.9368656000006013],['Target'],63,0,63,0,98.75182170000335,,5,98.742316200005,98.75182170000335,98.75182170000335,0.014291899991803803,,99.6794329000113,[np.float64(0.455)],[np.float64(-0.3308333333333333)],[1],[0],[0],[0.9368656000006013],['Target'],participant 1,001,2025-09-30_13h19.48.322,visual search task,,2025.1.1,60.367335234958695,2025-09-30 13h20.04.264051 +0530,
64,0,64,"[np.float64(-0.255), np.float64(-0.26666666666666666)]","[np.float64(0.25), np.float64(0.26)]","[1, 1]","[0, 0]","[0, 0]","[1.1545218999963254, 1.6712399999960326]","[None, 'Target']",64,0,64,0,99.72183439999935,,10,99.7087382000027,99.72183439999935,99.72183439999935,0.02900890000455547,100.72842710000987,101.38017640000908,"[np.float64(-0.255), np.float64(-0.26666666666666666)]","[np.float64(0.25), np.float64(0.26)]","[1, 1]","[0, 0]","[0, 0]","[1.1545218999963254, 1.6712399999960326]","[None, 'Target']",participant 1,001,2025-09-30_13h19.48.322,visual search task,,2025.1.1,60.367335234958695,2025-09-30 13h20.04.264051 +0530,
65,0,65,[np.float64(-0.25916666666666666)],[np.float64(0.020833333333333332)],[1],[0],[0],[0.6910093000042252],['Target'],65,0,65,0,101.42134030000307,,10,101.40813500000513,101.42134030000307,101.42134030000307,0.02764240000396967,,102.0993509000109,[np.float64(-0.25916666666666666)],[np.float64(0.020833333333333332)],[1],[0],[0],[0.6910093000042252],['Target'],participant 1,001,2025-09-30_13h19.48.322,visual search task,,2025.1.1,60.367335234958695,2025-09-30 13h20.04.264051 +0530,
66,0,66,[np.float64(0.3491666666666667)],[np.float64(0.43916666666666665)],[1],[0],[0],[1.0355349000019487],['Target'],66,0,66,0,102.12358990000212,,5,102.11431489999813,102.12358990000212,102.12358990000212,0.014739999998710118,103.13102800000343,103.15005690000544,[np.float64(0.3491666666666667)],[np.float64(0.43916666666666665)],[1],[0],[0],[1.0355349000019487],['Target'],participant 1,001,2025-09-30_13h19.48.322,visual search task,,2025.1.1,60.367335234958695,2025-09-30 13h20.04.264051 +0530,
67,0,67,"[np.float64(-0.5058333333333334), np.float64(-0.49333333333333335), np.float64(-0.48083333333333333)]","[np.float64(0.4608333333333333), np.float64(0.4583333333333333), np.float64(0.4575)]","[1, 1, 1]","[0, 0, 0]","[0, 0, 0]","[1.555846199989901, 1.9889217000018107, 2.622268899998744]","[None, None, 'Target']",67,0,67,0,103.1931295000104,,10,103.17940130000352,103.1931295000104,103.1931295000104,0.029165800006012432,104.19893990000128,105.80190459999721,"[np.float64(-0.5058333333333334), np.float64(-0.49333333333333335), np.float64(-0.48083333333333333)]","[np.float64(0.4608333333333333), np.float64(0.4583333333333333), np.float64(0.4575)]","[1, 1, 1]","[0, 0, 0]","[0, 0, 0]","[1.555846199989901, 1.9889217000018107, 2.622268899998744]","[None, None, 'Target']",participant 1,001,2025-09-30_13h19.48.322,visual search task,,2025.1.1,60.367335234958695,2025-09-30 13h20.04.264051 +0530,
68,0,68,[np.float64(-0.02666666666666667)],[np.float64(-0.48)],[1],[0],[0],[1.8577003000100376],['Target'],68,0,68,0,105.84442520000448,,10,105.83024740000837,105.84442520000448,105.84442520000448,0.02811110000766348,106.8517761999974,107.68821970000863,[np.float64(-0.02666666666666667)],[np.float64(-0.48)],[1],[0],[0],[1.8577003000100376],['Target'],participant 1,001,2025-09-30_13h19.48.322,visual search task,,2025.1.1,60.367335234958695,2025-09-30 13h20.04.264051 +0530,
69,0,69,"[np.float64(-0.41583333333333333), np.float64(-0.4075)]","[np.float64(0.3333333333333333), np.float64(0.335)]","[1, 1]","[0, 0]","[0, 0]","[1.1552900000096997, 1.58788980000827]","[None, 'Target']",69,0,69,0,107.71294680000574,,5,107.7017737999995,107.71294680000574,107.71294680000574,0.013370300002861768,108.72046589999809,109.28990499999782,"[np.float64(-0.41583333333333333), np.float64(-0.4075)]","[np.float64(0.3333333333333333), np.float64(0.335)]","[1, 1]","[0, 0]","[0, 0]","[1.1552900000096997, 1.58788980000827]","[None, 'Target']",participant 1,001,2025-09-30_13h19.48.322,visual search task,,2025.1.1,60.367335234958695,2025-09-30 13h20.04.264051 +0530,
70,0,70,[np.float64(-0.25583333333333336)],[np.float64(0.0008333333333333334)],[1],[0],[0],[1.0080375999968965],['Target'],70,0,70,0,109.3309833000094,,10,109.31667030000244,109.3309833000094,109.3309833000094,0.026448699994944036,110.3683435999992,110.32493729999987,[np.float64(-0.25583333333333336)],[np.float64(0.0008333333333333334)],[1],[0],[0],[1.0080375999968965],['Target'],participant 1,001,2025-09-30_13h19.48.322,visual search task,,2025.1.1,60.367335234958695,2025-09-30 13h20.04.264051 +0530,
71,0,71,[np.float64(0.24166666666666667)],[np.float64(0.4816666666666667)],[1],[0],[0],[2.5738910999934888],['Target'],71,0,71,0,110.3683435999992,,10,110.35403990000486,110.3683435999992,110.3683435999992,0.028894200004287995,111.37342940000235,112.92817090000608,[np.float64(0.24166666666666667)],[np.float64(0.4816666666666667)],[1],[0],[0],[2.5738910999934888],['Target'],participant 1,001,2025-09-30_13h19.48.322,visual search task,,2025.1.1,60.367335234958695,2025-09-30 13h20.04.264051 +0530,
72,0,72,"[np.float64(0.445), np.float64(0.45166666666666666)]","[np.float64(0.0033333333333333335), np.float64(0.008333333333333333)]","[1, 1]","[0, 0]","[0, 0]","[1.4080301000067266, 1.8909912000090117]","[None, 'Target']",72,0,72,0,112.96836379999877,,10,112.95461270000669,112.96836379999877,112.96836379999877,0.026247100002365187,113.9762563000113,114.84584890000406,"[np.float64(0.445), np.float64(0.45166666666666666)]","[np.float64(0.0033333333333333335), np.float64(0.008333333333333333)]","[1, 1]","[0, 0]","[0, 0]","[1.4080301000067266, 1.8909912000090117]","[None, 'Target']",participant 1,001,2025-09-30_13h19.48.322,visual search task,,2025.1.1,60.367335234958695,2025-09-30 13h20.04.264051 +0530,
73,0,73,[np.float64(-0.3)],[np.float64(0.18)],[1],[0],[0],[1.1531996999983676],['Target'],73,0,73,0,114.87073080000118,,5,114.8613605999999,114.87073080000118,114.87073080000118,0.015272899996489286,115.87849050000659,116.01479900001141,[np.float64(-0.3)],[np.float64(0.18)],[1],[0],[0],[1.1531996999983676],['Target'],participant 1,001,2025-09-30_13h19.48.322,visual search task,,2025.1.1,60.367335234958695,2025-09-30 13h20.04.264051 +0530,
74,0,74,"[np.float64(0.014166666666666666), np.float64(0.018333333333333333)]","[np.float64(-0.37), np.float64(-0.36833333333333335)]","[1, 1]","[0, 0]","[0, 0]","[1.3712312999996357, 1.7884476000035647]","[None, 'Target']",74,0,74,0,116.03636630000256,,5,116.02739800000563,116.03636630000256,116.03636630000256,0.012457799995900132,117.04644990000816,117.8160668000055,"[np.float64(0.014166666666666666), np.float64(0.018333333333333333)]","[np.float64(-0.37), np.float64(-0.36833333333333335)]","[1, 1]","[0, 0]","[0, 0]","[1.3712312999996357, 1.7884476000035647]","[None, 'Target']",participant 1,001,2025-09-30_13h19.48.322,visual search task,,2025.1.1,60.367335234958695,2025-09-30 13h20.04.264051 +0530,
75,0,75,[np.float64(-0.008333333333333333)],[np.float64(-0.3441666666666667)],[1],[0],[0],[0.5512425000051735],['Target'],75,0,75,0,117.84099389999756,,5,117.83143900000141,117.84099389999756,117.84099389999756,0.015096500006620772,,118.38289330000407,[np.float64(-0.008333333333333333)],[np.float64(-0.3441666666666667)],[1],[0],[0],[0.5512425000051735],['Target'],participant 1,001,2025-09-30_13h19.48.322,visual search task,,2025.1.1,60.367335234958695,2025-09-30 13h20.04.264051 +0530,
76,0,76,[np.float64(0.06583333333333333)],[np.float64(0.0375)],[1],[0],[0],[1.1030446999939159],['Target'],76,0,76,0,118.4083696000016,,5,118.39819770000759,118.4083696000016,118.4083696000016,0.015177900000708178,119.41559750000306,119.50146870000754,[np.float64(0.06583333333333333)],[np.float64(0.0375)],[1],[0],[0],[1.1030446999939159],['Target'],participant 1,001,2025-09-30_13h19.48.322,visual search task,,2025.1.1,60.367335234958695,2025-09-30 13h20.04.264051 +0530,
77,0,77,[np.float64(-0.12916666666666668)],[np.float64(0.12)],[1],[0],[0],[0.8355947000090964],['Target'],77,0,77,0,119.52599290000217,,5,119.51651650000713,119.52599290000217,119.52599290000217,0.014907899996615015,,120.35233930000686,[np.float64(-0.12916666666666668)],[np.float64(0.12)],[1],[0],[0],[0.8355947000090964],['Target'],participant 1,001,2025-09-30_13h19.48.322,visual search task,,2025.1.1,60.367335234958695,2025-09-30 13h20.04.264051 +0530,
78,0,78,[np.float64(0.32166666666666666)],[np.float64(-0.21916666666666668)],[1],[0],[0],[1.3078246000077343],['Target'],78,0,78,0,120.3924057999975,,10,120.37992370000575,120.3924057999975,120.3924057999975,0.027452700000139885,121.4011113000015,121.6879642999993,[np.float64(0.32166666666666666)],[np.float64(-0.21916666666666668)],[1],[0],[0],[1.3078246000077343],['Target'],participant 1,001,2025-09-30_13h19.48.322,visual search task,,2025.1.1,60.367335234958695,2025-09-30 13h20.04.264051 +0530,
79,0,79,[np.float64(-0.2658333333333333)],[np.float64(-0.16833333333333333)],[1],[0],[0],[1.1413391000096453],['Target'],79,0,79,0,121.72879360000661,,10,121.714844800008,121.72879360000661,121.72879360000661,0.0267294000077527,122.73602789999859,122.85641240001132,[np.float64(-0.2658333333333333)],[np.float64(-0.16833333333333333)],[1],[0],[0],[1.1413391000096453],['Target'],participant 1,001,2025-09-30_13h19.48.322,visual search task,,2025.1.1,60.367335234958695,2025-09-30 13h20.04.264051 +0530,
80,0,80,[np.float64(-0.13666666666666666)],[np.float64(-0.09166666666666666)],[1],[0],[0],[0.7164534999901662],['Target'],80,0,80,0,122.88168180000503,,5,122.87189850000141,122.88168180000503,122.88168180000503,0.015333200004533865,,123.58861390000675,[np.float64(-0.13666666666666666)],[np.float64(-0.09166666666666666)],[1],[0],[0],[0.7164534999901662],['Target'],participant 1,001,2025-09-30_13h19.48.322,visual search task,,2025.1.1,60.367335234958695,2025-09-30 13h20.04.264051 +0530,
81,0,81,[np.float64(-0.4375)],[np.float64(0.39)],[1],[0],[0],[1.8222100999992108],['Target'],81,0,81,0,123.61203129999922,,5,123.60293590000947,123.61203129999922,123.61203129999922,0.014185199994244613,124.62170119999791,125.42537710000761,[np.float64(-0.4375)],[np.float64(0.39)],[1],[0],[0],[1.8222100999992108],['Target'],participant 1,001,2025-09-30_13h19.48.322,visual search task,,2025.1.1,60.367335234958695,2025-09-30 13h20.04.264051 +0530,
82,0,82,"[np.float64(-0.4375), np.float64(-0.4375), np.float64(-0.42083333333333334)]","[np.float64(0.39), np.float64(0.39), np.float64(0.3983333333333333)]","[1, 1, 1]","[0, 0, 0]","[0, 0, 0]","[0.5051889000023948, 1.055734300010954, 1.5901485000067623]","[None, None, 'Target']",82,0,82,0,125.46695290000935,,10,125.45254779999959,125.46695290000935,125.46695290000935,0.026994900006684475,126.47336230000656,127.0429437999992,"[np.float64(-0.4375), np.float64(-0.4375), np.float64(-0.42083333333333334)]","[np.float64(0.39), np.float64(0.39), np.float64(0.3983333333333333)]","[1, 1, 1]","[0, 0, 0]","[0, 0, 0]","[0.5051889000023948, 1.055734300010954, 1.5901485000067623]","[None, None, 'Target']",participant 1,001,2025-09-30_13h19.48.322,visual search task,,2025.1.1,60.367335234958695,2025-09-30 13h20.04.264051 +0530,
83,0,83,[np.float64(-0.42833333333333334)],[np.float64(0.10416666666666667)],[1],[0],[0],[0.795580300007714],['Target'],83,0,83,0,127.23088990000542,,10,127.2143025000114,127.23088990000542,127.23088990000542,0.17107940001005773,,128.01013360000798,[np.float64(-0.42833333333333334)],[np.float64(0.10416666666666667)],[1],[0],[0],[0.795580300007714],['Target'],participant 1,001,2025-09-30_13h19.48.322,visual search task,,2025.1.1,60.367335234958695,2025-09-30 13h20.04.264051 +0530,
84,0,84,[np.float64(-0.12083333333333333)],[np.float64(-0.07416666666666667)],[1],[0],[0],[0.836812599998666],['Target'],84,0,84,0,128.03337270001066,,5,128.0245838999981,128.03337270001066,128.03337270001066,0.014320100002805702,,128.86161690000154,[np.float64(-0.12083333333333333)],[np.float64(-0.07416666666666667)],[1],[0],[0],[0.836812599998666],['Target'],participant 1,001,2025-09-30_13h19.48.322,visual search task,,2025.1.1,60.367335234958695,2025-09-30 13h20.04.264051 +0530,
85,0,85,[np.float64(0.2991666666666667)],[np.float64(-0.31416666666666665)],[1],[0],[0],[1.369427400000859],['Target'],85,0,85,0,128.88653040000645,,5,128.87670239999716,128.88653040000645,128.88653040000645,0.014902199996868148,129.89422550000018,130.2463945000054,[np.float64(0.2991666666666667)],[np.float64(-0.31416666666666665)],[1],[0],[0],[1.369427400000859],['Target'],participant 1,001,2025-09-30_13h19.48.322,visual search task,,2025.1.1,60.367335234958695,2025-09-30 13h20.04.264051 +0530,
86,0,86,[np.float64(-0.21)],[np.float64(-0.014166666666666666)],[1],[0],[0],[0.9579568000044674],['Target'],86,0,86,0,130.2866165000014,,10,130.27374170000257,130.2866165000014,130.2866165000014,0.027173000009497628,,131.23195800000394,[np.float64(-0.21)],[np.float64(-0.014166666666666666)],[1],[0],[0],[0.9579568000044674],['Target'],participant 1,001,2025-09-30_13h19.48.322,visual search task,,2025.1.1,60.367335234958695,2025-09-30 13h20.04.264051 +0530,
87,0,87,[np.float64(0.1325)],[np.float64(0.3466666666666667)],[1],[0],[0],[1.302519700009725],['Target'],87,0,87,0,131.25674690000596,,5,131.24725169999874,131.25674690000596,131.25674690000596,0.015142000003834255,132.26305819999834,132.550018000009,[np.float64(0.1325)],[np.float64(0.3466666666666667)],[1],[0],[0],[1.302519700009725],['Target'],participant 1,001,2025-09-30_13h19.48.322,visual search task,,2025.1.1,60.367335234958695,2025-09-30 13h20.04.264051 +0530,
88,0,88,"[np.float64(-0.1575), np.float64(-0.2075), np.float64(-0.1575), np.float64(-0.18833333333333332)]","[np.float64(0.02), np.float64(0.021666666666666667), np.float64(0.02), np.float64(0.023333333333333334)]","[1, 1, 1, 1]","[0, 0, 0, 0]","[0, 0, 0, 0]","[1.2721803000022192, 1.8715907000005245, 2.322462700001779, 3.30678739999712]","[None, None, None, 'Target']",88,0,88,0,132.5943016000092,,10,132.57856410001114,132.5943016000092,132.5943016000092,0.028407200006768107,133.59975239999767,135.88561100000516,"[np.float64(-0.1575), np.float64(-0.2075), np.float64(-0.1575), np.float64(-0.18833333333333332)]","[np.float64(0.02), np.float64(0.021666666666666667), np.float64(0.02), np.float64(0.023333333333333334)]","[1, 1, 1, 1]","[0, 0, 0, 0]","[0, 0, 0, 0]","[1.2721803000022192, 1.8715907000005245, 2.322462700001779, 3.30678739999712]","[None, None, None, 'Target']",participant 1,001,2025-09-30_13h19.48.322,visual search task,,2025.1.1,60.367335234958695,2025-09-30 13h20.04.264051 +0530,
89,0,89,[np.float64(0.30416666666666664)],[np.float64(0.42916666666666664)],[1],[0],[0],[1.2572574999940116],['Target'],89,0,89,0,135.92858340000384,,10,135.9146316000115,135.92858340000384,135.92858340000384,0.02862920000916347,136.93492680000782,137.1721103000018,[np.float64(0.30416666666666664)],[np.float64(0.42916666666666664)],[1],[0],[0],[1.2572574999940116],['Target'],participant 1,001,2025-09-30_13h19.48.322,visual search task,,2025.1.1,60.367335234958695,2025-09-30 13h20.04.264051 +0530,
90,0,90,"[np.float64(0.2575), np.float64(0.25833333333333336), np.float64(0.26166666666666666)]","[np.float64(-0.20833333333333334), np.float64(-0.20833333333333334), np.float64(-0.20583333333333334)]","[1, 1, 1]","[0, 0, 0]","[0, 0, 0]","[1.70490999998583, 2.13734139999724, 2.7389857999951346]","[None, None, 'Target']",90,0,90,0,137.1960504000017,,5,137.1850329000008,137.1960504000017,137.1960504000017,0.012753400005749427,138.2028660000069,139.92424480000045,"[np.float64(0.2575), np.float64(0.25833333333333336), np.float64(0.26166666666666666)]","[np.float64(-0.20833333333333334), np.float64(-0.20833333333333334), np.float64(-0.20583333333333334)]","[1, 1, 1]","[0, 0, 0]","[0, 0, 0]","[1.70490999998583, 2.13734139999724, 2.7389857999951346]","[None, None, 'Target']",participant 1,001,2025-09-30_13h19.48.322,visual search task,,2025.1.1,60.367335234958695,2025-09-30 13h20.04.264051 +0530,
91,0,91,[np.float64(-0.3075)],[np.float64(0.23083333333333333)],[1],[0],[0],[1.184924899993348],['Target'],91,0,91,0,139.9489098000049,,5,139.93989000000875,139.9489098000049,139.9489098000049,0.015388700005132705,140.955978900005,141.12510509999993,[np.float64(-0.3075)],[np.float64(0.23083333333333333)],[1],[0],[0],[1.184924899993348],['Target'],participant 1,001,2025-09-30_13h19.48.322,visual search task,,2025.1.1,60.367335234958695,2025-09-30 13h20.04.264051 +0530,
92,0,92,[np.float64(0.25083333333333335)],[np.float64(-0.025833333333333333)],[1],[0],[0],[1.0699829999939539],['Target'],92,0,92,0,141.1490363000048,,5,141.13993010000559,141.1490363000048,141.1490363000048,0.014636100007919595,142.15733070000715,142.2101401999971,[np.float64(0.25083333333333335)],[np.float64(-0.025833333333333333)],[1],[0],[0],[1.0699829999939539],['Target'],participant 1,001,2025-09-30_13h19.48.322,visual search task,,2025.1.1,60.367335234958695,2025-09-30 13h20.04.264051 +0530,
93,0,93,[np.float64(0.1025)],[np.float64(0.025)],[1],[0],[0],[2.606531099998392],['Target'],93,0,93,0,142.25279910000972,,10,142.2400304000039,142.25279910000972,142.25279910000972,0.029707900001085363,143.2586478000012,144.84678490000078,[np.float64(0.1025)],[np.float64(0.025)],[1],[0],[0],[2.606531099998392],['Target'],participant 1,001,2025-09-30_13h19.48.322,visual search task,,2025.1.1,60.367335234958695,2025-09-30 13h20.04.264051 +0530,
94,0,94,"[np.float64(0.51), np.float64(0.4875)]","[np.float64(0.33), np.float64(0.34)]","[1, 1]","[0, 0]","[0, 0]","[1.3054113000107463, 1.788963800005149]","[None, 'Target']",94,0,94,0,144.89017150001018,,10,144.87552790000336,144.89017150001018,144.89017150001018,0.028529599992907606,145.89460939999844,146.66474970000854,"[np.float64(0.51), np.float64(0.4875)]","[np.float64(0.33), np.float64(0.34)]","[1, 1]","[0, 0]","[0, 0]","[1.3054113000107463, 1.788963800005149]","[None, 'Target']",participant 1,001,2025-09-30_13h19.48.322,visual search task,,2025.1.1,60.367335234958695,2025-09-30 13h20.04.264051 +0530,
95,0,95,"[np.float64(-0.4125), np.float64(-0.4175)]","[np.float64(-0.4091666666666667), np.float64(-0.39916666666666667)]","[1, 1]","[0, 0]","[0, 0]","[1.6732719999999972, 2.138108300001477]","[None, 'Target']",95,0,95,0,146.7072165999998,,10,146.6938599999994,146.7072165999998,146.7072165999998,0.02875859999039676,147.71352810000826,148.8322354999982,"[np.float64(-0.4125), np.float64(-0.4175)]","[np.float64(-0.4091666666666667), np.float64(-0.39916666666666667)]","[1, 1]","[0, 0]","[0, 0]","[1.6732719999999972, 2.138108300001477]","[None, 'Target']",participant 1,001,2025-09-30_13h19.48.322,visual search task,,2025.1.1,60.367335234958695,2025-09-30 13h20.04.264051 +0530,
96,0,96,"[np.float64(0.12916666666666668), np.float64(0.1375)]","[np.float64(-0.10666666666666667), np.float64(-0.10833333333333334)]","[1, 1]","[0, 0]","[0, 0]","[1.428450100007467, 1.9131240999995498]","[None, 'Target']",96,0,96,0,148.87294600000314,,10,148.85633130000497,148.87294600000314,148.87294600000314,0.02385379999759607,149.88271309999982,150.76968810000108,"[np.float64(0.12916666666666668), np.float64(0.1375)]","[np.float64(-0.10666666666666667), np.float64(-0.10833333333333334)]","[1, 1]","[0, 0]","[0, 0]","[1.428450100007467, 1.9131240999995498]","[None, 'Target']",participant 1,001,2025-09-30_13h19.48.322,visual search task,,2025.1.1,60.367335234958695,2025-09-30 13h20.04.264051 +0530,
97,0,97,[np.float64(-0.11333333333333333)],[np.float64(-0.3491666666666667)],[1],[0],[0],[1.2845405999978539],['Target'],97,0,97,0,150.79646150000917,,5,150.7857354000007,150.79646150000917,150.79646150000917,0.01577299999189563,151.800977100007,152.07048460000078,[np.float64(-0.11333333333333333)],[np.float64(-0.3491666666666667)],[1],[0],[0],[1.2845405999978539],['Target'],participant 1,001,2025-09-30_13h19.48.322,visual search task,,2025.1.1,60.367335234958695,2025-09-30 13h20.04.264051 +0530,
98,0,98,[np.float64(0.16416666666666666)],[np.float64(-0.43)],[1],[0],[0],[0.9193059000099311],['Target'],98,0,98,0,152.09477080000215,,5,152.08471640000062,152.09477080000215,152.09477080000215,0.014042299997527152,,153.00423880000017,[np.float64(0.16416666666666666)],[np.float64(-0.43)],[1],[0],[0],[0.9193059000099311],['Target'],participant 1,001,2025-09-30_13h19.48.322,visual search task,,2025.1.1,60.367335234958695,2025-09-30 13h20.04.264051 +0530,
99,0,99,[np.float64(-0.010833333333333334)],[np.float64(-0.4483333333333333)],[1],[0],[0],[1.1103199000062887],['Target'],99,0,99,0,153.04046489999746,,10,153.02849540000898,153.04046489999746,153.04046489999746,0.0240814999997383,154.0534115000046,154.13901590000023,[np.float64(-0.010833333333333334)],[np.float64(-0.4483333333333333)],[1],[0],[0],[1.1103199000062887],['Target'],participant 1,001,2025-09-30_13h19.48.322,visual search task,,2025.1.1,60.367335234958695,2025-09-30 13h20.04.264051 +0530,
100,0,100,[np.float64(0.0475)],[np.float64(-0.2975)],[1],[0],[0],[0.9234966999938479],['Target'],100,0,100,0,154.17771270000958,,10,154.16536470000574,154.17771270000958,154.17771270000958,0.02614279999397695,,155.08912590000546,[np.float64(0.0475)],[np.float64(-0.2975)],[1],[0],[0],[0.9234966999938479],['Target'],participant 1,001,2025-09-30_13h19.48.322,visual search task,,2025.1.1,60.367335234958695,2025-09-30 13h20.04.264051 +0530,
101,0,101,[np.float64(0.265)],[np.float64(-0.25666666666666665)],[1],[0],[0],[1.106657800002722],['Target'],101,0,101,0,155.1096503000008,,5,155.10198120000132,155.1096503000008,155.1096503000008,0.012641599998460151,156.1224258000002,156.20881860000372,[np.float64(0.265)],[np.float64(-0.25666666666666665)],[1],[0],[0],[1.106657800002722],['Target'],participant 1,001,2025-09-30_13h19.48.322,visual search task,,2025.1.1,60.367335234958695,2025-09-30 13h20.04.264051 +0530,
102,0,102,[np.float64(0.42583333333333334)],[np.float64(0.3975)],[1],[0],[0],[1.5076798999944003],['Target'],102,0,102,0,156.24998220000998,,10,156.23599210000248,156.24998220000998,156.24998220000998,0.027044100002967753,157.25750430001062,157.7439188999997,[np.float64(0.42583333333333334)],[np.float64(0.3975)],[1],[0],[0],[1.5076798999944003],['Target'],participant 1,001,2025-09-30_13h19.48.322,visual search task,,2025.1.1,60.367335234958695,2025-09-30 13h20.04.264051 +0530,
103,0,103,[np.float64(0.37916666666666665)],[np.float64(0.30666666666666664)],[1],[0],[0],[0.9526842000050237],['Target'],103,0,103,0,157.76871350000147,,5,157.75923660000262,157.76871350000147,157.76871350000147,0.015156000008573756,,158.71218280000903,[np.float64(0.37916666666666665)],[np.float64(0.30666666666666664)],[1],[0],[0],[0.9526842000050237],['Target'],participant 1,001,2025-09-30_13h19.48.322,visual search task,,2025.1.1,60.367335234958695,2025-09-30 13h20.04.264051 +0530,
104,0,104,[np.float64(0.455)],[np.float64(-0.18166666666666667)],[1],[0],[0],[1.1356510000041453],['Target'],104,0,104,0,158.7363989000005,,5,158.72619549999945,158.7363989000005,158.7363989000005,0.013877700010198168,159.74320660000376,159.86211680000997,[np.float64(0.455)],[np.float64(-0.18166666666666667)],[1],[0],[0],[1.1356510000041453],['Target'],participant 1,001,2025-09-30_13h19.48.322,visual search task,,2025.1.1,60.367335234958695,2025-09-30 13h20.04.264051 +0530,
105,0,105,[np.float64(0.15416666666666667)],[np.float64(-0.058333333333333334)],[1],[0],[0],[1.475871400005417],['Target'],105,0,105,0,159.9014298999973,,10,159.88843770000676,159.9014298999973,159.9014298999973,0.026129999998374842,160.91116109999712,161.364505000005,[np.float64(0.15416666666666667)],[np.float64(-0.058333333333333334)],[1],[0],[0],[1.475871400005417],['Target'],participant 1,001,2025-09-30_13h19.48.322,visual search task,,2025.1.1,60.367335234958695,2025-09-30 13h20.04.264051 +0530,
106,0,106,[np.float64(-0.285)],[np.float64(0.2683333333333333)],[1],[0],[0],[1.5719677000015508],['Target'],106,0,106,0,161.40666580000834,,10,161.3944155000063,161.40666580000834,161.40666580000834,0.029727200002525933,162.4127964000072,162.9665982000006,[np.float64(-0.285)],[np.float64(0.2683333333333333)],[1],[0],[0],[1.5719677000015508],['Target'],participant 1,001,2025-09-30_13h19.48.322,visual search task,,2025.1.1,60.367335234958695,2025-09-30 13h20.04.264051 +0530,
107,0,107,[np.float64(-0.1475)],[np.float64(-0.20833333333333334)],[1],[0],[0],[1.3701178000046639],['Target'],107,0,107,0,163.00985149999906,,10,162.99551860000065,163.00985149999906,163.00985149999906,0.028735400002915412,164.01406349999888,164.36587520000467,[np.float64(-0.1475)],[np.float64(-0.20833333333333334)],[1],[0],[0],[1.3701178000046639],['Target'],participant 1,001,2025-09-30_13h19.48.322,visual search task,,2025.1.1,60.367335234958695,2025-09-30 13h20.04.264051 +0530,
108,0,108,[np.float64(0.045)],[np.float64(-0.18916666666666668)],[1],[0],[0],[0.8770707000076072],['Target'],108,0,108,0,164.40405979999923,,10,164.39028870000038,164.40405979999923,164.40405979999923,0.024256799995782785,,165.26753910000843,[np.float64(0.045)],[np.float64(-0.18916666666666668)],[1],[0],[0],[0.8770707000076072],['Target'],participant 1,001,2025-09-30_13h19.48.322,visual search task,,2025.1.1,60.367335234958695,2025-09-30 13h20.04.264051 +0530,
109,0,109,[np.float64(-0.33)],[np.float64(-0.4275)],[1],[0],[0],[0.9872722000000067],['Target'],109,0,109,0,165.29113110000617,,5,165.28141740000865,165.29113110000617,165.29113110000617,0.013740800000960007,,166.26888050000707,[np.float64(-0.33)],[np.float64(-0.4275)],[1],[0],[0],[0.9872722000000067],['Target'],participant 1,001,2025-09-30_13h19.48.322,visual search task,,2025.1.1,60.367335234958695,2025-09-30 13h20.04.264051 +0530,
110,0,110,[np.float64(-0.04083333333333333)],[np.float64(-0.24583333333333332)],[1],[0],[0],[0.8436547000019345],['Target'],110,0,110,0,166.3072766999976,,10,166.29300750000402,166.3072766999976,166.3072766999976,0.02401179999287706,,167.13687699999718,[np.float64(-0.04083333333333333)],[np.float64(-0.24583333333333332)],[1],[0],[0],[0.8436547000019345],['Target'],participant 1,001,2025-09-30_13h19.48.322,visual search task,,2025.1.1,60.367335234958695,2025-09-30 13h20.04.264051 +0530,
111,0,111,[np.float64(-0.48333333333333334)],[np.float64(-0.10916666666666666)],[1],[0],[0],[0.7193843999993987],['Target'],111,0,111,0,167.16112040000735,,5,167.15153879999707,167.16112040000735,167.16112040000735,0.014485399995464832,,167.8712116000097,[np.float64(-0.48333333333333334)],[np.float64(-0.10916666666666666)],[1],[0],[0],[0.7193843999993987],['Target'],participant 1,001,2025-09-30_13h19.48.322,visual search task,,2025.1.1,60.367335234958695,2025-09-30 13h20.04.264051 +0530,
112,0,112,[np.float64(-0.2925)],[np.float64(0.155)],[1],[0],[0],[1.2203398999990895],['Target'],112,0,112,0,167.89555670000846,,5,167.88542900000175,167.89555670000846,167.89555670000846,0.014010400002007373,168.9033175000077,169.10599840000214,[np.float64(-0.2925)],[np.float64(0.155)],[1],[0],[0],[1.2203398999990895],['Target'],participant 1,001,2025-09-30_13h19.48.322,visual search task,,2025.1.1,60.367335234958695,2025-09-30 13h20.04.264051 +0530,
113,0,113,[np.float64(-0.16583333333333333)],[np.float64(-0.2633333333333333)],[1],[0],[0],[0.9198438999883365],['Target'],113,0,113,0,169.12923320000118,,5,169.1199779000017,169.12923320000118,169.12923320000118,0.013798400002997369,,170.04003450000891,[np.float64(-0.16583333333333333)],[np.float64(-0.2633333333333333)],[1],[0],[0],[0.9198438999883365],['Target'],participant 1,001,2025-09-30_13h19.48.322,visual search task,,2025.1.1,60.367335234958695,2025-09-30 13h20.04.264051 +0530,
114,0,114,[np.float64(0.3625)],[np.float64(0.2916666666666667)],[1],[0],[0],[1.372563099997933],['Target'],114,0,114,0,170.08207970000512,,10,170.06863030001114,170.08207970000512,170.08207970000512,0.028420200003893115,171.08900100000028,171.44139030000952,[np.float64(0.3625)],[np.float64(0.2916666666666667)],[1],[0],[0],[1.372563099997933],['Target'],participant 1,001,2025-09-30_13h19.48.322,visual search task,,2025.1.1,60.367335234958695,2025-09-30 13h20.04.264051 +0530,
115,0,115,[np.float64(0.18)],[np.float64(-0.10416666666666667)],[1],[0],[0],[0.8532761999958893],['Target'],115,0,115,0,171.46658580000803,,5,171.4562300000107,171.46658580000803,171.46658580000803,0.014668699994217604,,172.30974799999967,[np.float64(0.18)],[np.float64(-0.10416666666666667)],[1],[0],[0],[0.8532761999958893],['Target'],participant 1,001,2025-09-30_13h19.48.322,visual search task,,2025.1.1,60.367335234958695,2025-09-30 13h20.04.264051 +0530,
116,0,116,[np.float64(-0.105)],[np.float64(-0.22666666666666666)],[1],[0],[0],[0.7691105999983847],['Target'],116,0,116,0,172.33537860000797,,5,172.32482490000257,172.33537860000797,172.33537860000797,0.01490340000600554,,173.09419380000327,[np.float64(-0.105)],[np.float64(-0.22666666666666666)],[1],[0],[0],[0.7691105999983847],['Target'],participant 1,001,2025-09-30_13h19.48.322,visual search task,,2025.1.1,60.367335234958695,2025-09-30 13h20.04.264051 +0530,
117,0,117,[np.float64(-0.13333333333333333)],[np.float64(0.055)],[1],[0],[0],[0.8349259000096936],['Target'],117,0,117,0,173.11995930000558,,5,173.11014260000957,173.11995930000558,173.11995930000558,0.015747400000691414,,173.9453164000006,[np.float64(-0.13333333333333333)],[np.float64(0.055)],[1],[0],[0],[0.8349259000096936],['Target'],participant 1,001,2025-09-30_13h19.48.322,visual search task,,2025.1.1,60.367335234958695,2025-09-30 13h20.04.264051 +0530,
118,0,118,[np.float64(0.19)],[np.float64(-0.3125)],[1],[0],[0],[1.1058927000121912],['Target'],118,0,118,0,173.98582400000305,,10,173.97267790000478,173.98582400000305,173.98582400000305,0.027242600001045503,174.99328180000884,175.07883330000914,[np.float64(0.19)],[np.float64(-0.3125)],[1],[0],[0],[1.1058927000121912],['Target'],participant 1,001,2025-09-30_13h19.48.322,visual search task,,2025.1.1,60.367335234958695,2025-09-30 13h20.04.264051 +0530,
119,0,119,"[np.float64(0.13833333333333334), np.float64(0.13416666666666666)]","[np.float64(-0.0375), np.float64(-0.06333333333333334)]","[1, 1]","[0, 0]","[0, 0]","[0.825083599993377, 1.3743296999891754]","[None, 'Target']",119,0,119,0,175.11957000000984,,10,175.10550840001088,175.11957000000984,175.11957000000984,0.026484300004085526,176.12852830000338,176.4800869000028,"[np.float64(0.13833333333333334), np.float64(0.13416666666666666)]","[np.float64(-0.0375), np.float64(-0.06333333333333334)]","[1, 1]","[0, 0]","[0, 0]","[0.825083599993377, 1.3743296999891754]","[None, 'Target']",participant 1,001,2025-09-30_13h19.48.322,visual search task,,2025.1.1,60.367335234958695,2025-09-30 13h20.04.264051 +0530,
120,0,120,[np.float64(-0.2475)],[np.float64(0.305)],[1],[0],[0],[1.1581715999927837],['Target'],120,0,120,0,176.52138250001008,,10,176.5081111000036,176.52138250001008,176.52138250001008,0.02769570000236854,177.52943400001095,177.6665456000046,[np.float64(-0.2475)],[np.float64(0.305)],[1],[0],[0],[1.1581715999927837],['Target'],participant 1,001,2025-09-30_13h19.48.322,visual search task,,2025.1.1,60.367335234958695,2025-09-30 13h20.04.264051 +0530,
121,0,121,[np.float64(-0.21)],[np.float64(-0.1325)],[1],[0],[0],[1.2352256000012858],['Target'],121,0,121,0,177.6920395000052,,5,177.6815915000043,177.6920395000052,177.6920395000052,0.01482640000176616,178.69752440000593,178.91706690000137,[np.float64(-0.21)],[np.float64(-0.1325)],[1],[0],[0],[1.2352256000012858],['Target'],participant 1,001,2025-09-30_13h19.48.322,visual search task,,2025.1.1,60.367335234958695,2025-09-30 13h20.04.264051 +0530,
122,0,122,"[np.float64(0.0033333333333333335), np.float64(0.014166666666666666)]","[np.float64(0.38166666666666665), np.float64(0.39)]","[1, 1]","[0, 0]","[0, 0]","[1.0852453999978025, 1.6357953999977326]","[None, 'Target']",122,0,122,0,178.94273400001111,,5,178.93241750000743,178.94273400001111,178.94273400001111,0.015186799995717593,179.94892059999984,180.56846860000223,"[np.float64(0.0033333333333333335), np.float64(0.014166666666666666)]","[np.float64(0.38166666666666665), np.float64(0.39)]","[1, 1]","[0, 0]","[0, 0]","[1.0852453999978025, 1.6357953999977326]","[None, 'Target']",participant 1,001,2025-09-30_13h19.48.322,visual search task,,2025.1.1,60.367335234958695,2025-09-30 13h20.04.264051 +0530,
123,0,123,[np.float64(-0.055)],[np.float64(0.3566666666666667)],[1],[0],[0],[0.6525592999969376],['Target'],123,0,123,0,180.59393090000958,,5,180.58349170000292,180.59393090000958,180.59393090000958,0.014792600006330758,,181.23631190000742,[np.float64(-0.055)],[np.float64(0.3566666666666667)],[1],[0],[0],[0.6525592999969376],['Target'],participant 1,001,2025-09-30_13h19.48.322,visual search task,,2025.1.1,60.367335234958695,2025-09-30 13h20.04.264051 +0530,
124,0,124,[np.float64(0.19833333333333333)],[np.float64(0.2633333333333333)],[1],[0],[0],[0.8353438000049209],['Target'],124,0,124,0,181.26125320000574,,5,181.25128550000954,181.26125320000574,181.26125320000574,0.01481739999144338,,182.08684519999952,[np.float64(0.19833333333333333)],[np.float64(0.2633333333333333)],[1],[0],[0],[0.8353438000049209],['Target'],participant 1,001,2025-09-30_13h19.48.322,visual search task,,2025.1.1,60.367335234958695,2025-09-30 13h20.04.264051 +0530,
125,0,125,[np.float64(-0.31083333333333335)],[np.float64(0.06416666666666666)],[1],[0],[0],[1.0360249000077602],['Target'],125,0,125,0,182.11224980000407,,5,182.10213120000844,182.11224980000407,182.11224980000407,0.015111500004422851,183.1190043000097,183.13839140000346,[np.float64(-0.31083333333333335)],[np.float64(0.06416666666666666)],[1],[0],[0],[1.0360249000077602],['Target'],participant 1,001,2025-09-30_13h19.48.322,visual search task,,2025.1.1,60.367335234958695,2025-09-30 13h20.04.264051 +0530,
126,0,126,[np.float64(0.14083333333333334)],[np.float64(-0.4325)],[1],[0],[0],[1.7903590999922017],['Target'],126,0,126,0,183.17872680000437,,10,183.16613209999923,183.17872680000437,183.17872680000437,0.027572200007853098,184.18676100000448,184.95675850000407,[np.float64(0.14083333333333334)],[np.float64(-0.4325)],[1],[0],[0],[1.7903590999922017],['Target'],participant 1,001,2025-09-30_13h19.48.322,visual search task,,2025.1.1,60.367335234958695,2025-09-30 13h20.04.264051 +0530,
127,0,127,[np.float64(-0.2025)],[np.float64(0.46416666666666667)],[1],[0],[0],[1.7197065999935148],['Target'],127,0,127,0,184.98311660000763,,5,184.9720696000004,184.98311660000763,184.98311660000763,0.015102399993338622,185.98957130000053,186.69203669999843,[np.float64(-0.2025)],[np.float64(0.46416666666666667)],[1],[0],[0],[1.7197065999935148],['Target'],participant 1,001,2025-09-30_13h19.48.322,visual search task,,2025.1.1,60.367335234958695,2025-09-30 13h20.04.264051 +0530,
128,0,128,"[np.float64(0.4558333333333333), np.float64(0.46)]","[np.float64(0.41583333333333333), np.float64(0.4175)]","[1, 1]","[0, 0]","[0, 0]","[1.1855822000070475, 1.65209020000475]","[None, 'Target']",128,0,128,0,186.71720120000828,,5,186.70753420000256,186.71720120000828,186.71720120000828,0.015371899993624538,187.72383960000298,188.35986270000285,"[np.float64(0.4558333333333333), np.float64(0.46)]","[np.float64(0.41583333333333333), np.float64(0.4175)]","[1, 1]","[0, 0]","[0, 0]","[1.1855822000070475, 1.65209020000475]","[None, 'Target']",participant 1,001,2025-09-30_13h19.48.322,visual search task,,2025.1.1,60.367335234958695,2025-09-30 13h20.04.264051 +0530,
129,0,129,[np.float64(-0.14)],[np.float64(-0.1925)],[1],[0],[0],[1.2558317999937572],['Target'],129,0,129,0,188.3844611000095,,5,188.37406460000784,188.3844611000095,188.3844611000095,0.014037800006917678,189.3924265000096,189.63014950000797,[np.float64(-0.14)],[np.float64(-0.1925)],[1],[0],[0],[1.2558317999937572],['Target'],participant 1,001,2025-09-30_13h19.48.322,visual search task,,2025.1.1,60.367335234958695,2025-09-30 13h20.04.264051 +0530,
130,0,130,[np.float64(-0.37)],[np.float64(-0.006666666666666667)],[1],[0],[0],[0.9040600000007544],['Target'],130,0,130,0,189.67335630000161,,10,189.65876970000681,189.67335630000161,189.67335630000161,0.0284854999918025,,190.56313840000075,[np.float64(-0.37)],[np.float64(-0.006666666666666667)],[1],[0],[0],[0.9040600000007544],['Target'],participant 1,001,2025-09-30_13h19.48.322,visual search task,,2025.1.1,60.367335234958695,2025-09-30 13h20.04.264051 +0530,
131,0,131,[np.float64(0.04583333333333333)],[np.float64(0.39666666666666667)],[1],[0],[0],[0.9181901999982074],['Target'],131,0,131,0,190.58803130000888,,5,190.57892850000644,190.58803130000888,190.58803130000888,0.01555299999017734,,191.49732900000527,[np.float64(0.04583333333333333)],[np.float64(0.39666666666666667)],[1],[0],[0],[0.9181901999982074],['Target'],participant 1,001,2025-09-30_13h19.48.322,visual search task,,2025.1.1,60.367335234958695,2025-09-30 13h20.04.264051 +0530,
132,0,132,[np.float64(0.165)],[np.float64(0.01)],[1],[0],[0],[1.1718634999997448],['Target'],132,0,132,0,191.53798500000266,,10,191.52595180000935,191.53798500000266,191.53798500000266,0.028456500003812835,192.5459547000064,192.69809890000033,[np.float64(0.165)],[np.float64(0.01)],[1],[0],[0],[1.1718634999997448],['Target'],participant 1,001,2025-09-30_13h19.48.322,visual search task,,2025.1.1,60.367335234958695,2025-09-30 13h20.04.264051 +0530,
133,0,133,"[np.float64(-0.165), np.float64(-0.15333333333333332)]","[np.float64(-0.006666666666666667), np.float64(-0.008333333333333333)]","[1, 1]","[0, 0]","[0, 0]","[1.1369132999971043, 1.669191499997396]","[None, 'Target']",133,0,133,0,192.72330700000748,,5,192.71363759999804,192.72330700000748,192.72330700000748,0.015307499998016283,193.7305677000113,194.38305899999978,"[np.float64(-0.165), np.float64(-0.15333333333333332)]","[np.float64(-0.006666666666666667), np.float64(-0.008333333333333333)]","[1, 1]","[0, 0]","[0, 0]","[1.1369132999971043, 1.669191499997396]","[None, 'Target']",participant 1,001,2025-09-30_13h19.48.322,visual search task,,2025.1.1,60.367335234958695,2025-09-30 13h20.04.264051 +0530,
134,0,134,[np.float64(0.375)],[np.float64(-0.1925)],[1],[0],[0],[1.2410064000141574],['Target'],134,0,134,0,194.42254169999796,,10,194.4105802999984,194.42254169999796,194.42254169999796,0.02727940000477247,195.43245570000727,195.6518056000059,[np.float64(0.375)],[np.float64(-0.1925)],[1],[0],[0],[1.2410064000141574],['Target'],participant 1,001,2025-09-30_13h19.48.322,visual search task,,2025.1.1,60.367335234958695,2025-09-30 13h20.04.264051 +0530,
135,0,135,[np.float64(-0.43166666666666664)],[np.float64(-0.03333333333333333)],[1],[0],[0],[1.2054728000075556],['Target'],135,0,135,0,195.6957284000091,,10,195.6805003000045,195.6957284000091,195.6957284000091,0.0285303999989992,196.7006650000112,196.88629290000245,[np.float64(-0.43166666666666664)],[np.float64(-0.03333333333333333)],[1],[0],[0],[1.2054728000075556],['Target'],participant 1,001,2025-09-30_13h19.48.322,visual search task,,2025.1.1,60.367335234958695,2025-09-30 13h20.04.264051 +0530,
136,0,136,[np.float64(0.16416666666666666)],[np.float64(-0.3225)],[1],[0],[0],[1.6244728000019677],['Target'],136,0,136,0,196.92775080000865,,10,196.91400299999805,196.92775080000865,196.92775080000865,0.027261299997917376,197.93530720000854,198.53870270001062,[np.float64(0.16416666666666666)],[np.float64(-0.3225)],[1],[0],[0],[1.6244728000019677],['Target'],participant 1,001,2025-09-30_13h19.48.322,visual search task,,2025.1.1,60.367335234958695,2025-09-30 13h20.04.264051 +0530,
137,0,137,"[np.float64(0.08083333333333333), np.float64(0.0675)]","[np.float64(0.4058333333333333), np.float64(0.4058333333333333)]","[1, 1]","[0, 0]","[0, 0]","[1.42026359999727, 1.9199360999919008]","[None, 'Target']",137,0,137,0,198.56282950000605,,5,198.5531975000049,198.56282950000605,198.56282950000605,0.014281099996878766,199.57038640000974,200.47333239999716,"[np.float64(0.08083333333333333), np.float64(0.0675)]","[np.float64(0.4058333333333333), np.float64(0.4058333333333333)]","[1, 1]","[0, 0]","[0, 0]","[1.42026359999727, 1.9199360999919008]","[None, 'Target']",participant 1,001,2025-09-30_13h19.48.322,visual search task,,2025.1.1,60.367335234958695,2025-09-30 13h20.04.264051 +0530,
138,0,138,"[np.float64(0.23), np.float64(0.2375)]","[np.float64(-0.24083333333333334), np.float64(-0.23916666666666667)]","[1, 1]","[0, 0]","[0, 0]","[1.875497400003951, 2.424502699999721]","[None, 'Target']",138,0,138,0,200.51501090000966,,10,200.50113509999937,200.51501090000966,200.51501090000966,0.027645599999232218,201.52268249999906,202.92588900000555,"[np.float64(0.23), np.float64(0.2375)]","[np.float64(-0.24083333333333334), np.float64(-0.23916666666666667)]","[1, 1]","[0, 0]","[0, 0]","[1.875497400003951, 2.424502699999721]","[None, 'Target']",participant 1,001,2025-09-30_13h19.48.322,visual search task,,2025.1.1,60.367335234958695,2025-09-30 13h20.04.264051 +0530,
139,0,139,[np.float64(0.0075)],[np.float64(-0.2841666666666667)],[1],[0],[0],[0.9691050999972504],['Target'],139,0,139,0,202.95113450000645,,5,202.9414481999993,202.95113450000645,202.95113450000645,0.015280999999959022,,203.9108156000002,[np.float64(0.0075)],[np.float64(-0.2841666666666667)],[1],[0],[0],[0.9691050999972504],['Target'],participant 1,001,2025-09-30_13h19.48.322,visual search task,,2025.1.1,60.367335234958695,2025-09-30 13h20.04.264051 +0530,
140,0,140,[np.float64(0.2925)],[np.float64(-0.09583333333333334)],[1],[0],[0],[1.0597033999947598],['Target'],140,0,140,0,203.94832090000273,,10,203.93561159999808,203.94832090000273,203.94832090000273,0.024598700008937158,204.95960850000847,204.9955864000076,[np.float64(0.2925)],[np.float64(-0.09583333333333334)],[1],[0],[0],[1.0597033999947598],['Target'],participant 1,001,2025-09-30_13h19.48.322,visual search task,,2025.1.1,60.367335234958695,2025-09-30 13h20.04.264051 +0530,
141,0,141,[np.float64(-0.23333333333333334)],[np.float64(-0.06666666666666667)],[1],[0],[0],[1.0891852000058861],['Target'],141,0,141,0,205.0376258000033,,10,205.02473479999753,205.0376258000033,205.0376258000033,0.028939099996932782,206.043281700011,206.11415710000438,[np.float64(-0.23333333333333334)],[np.float64(-0.06666666666666667)],[1],[0],[0],[1.0891852000058861],['Target'],participant 1,001,2025-09-30_13h19.48.322,visual search task,,2025.1.1,60.367335234958695,2025-09-30 13h20.04.264051 +0530,
142,0,142,[np.float64(-0.2175)],[np.float64(-0.2783333333333333)],[1],[0],[0],[0.8028503000095952],['Target'],142,0,142,0,206.13981410000997,,5,206.12852600000042,206.13981410000997,206.13981410000997,0.01412700000219047,,206.9315961000102,[np.float64(-0.2175)],[np.float64(-0.2783333333333333)],[1],[0],[0],[0.8028503000095952],['Target'],participant 1,001,2025-09-30_13h19.48.322,visual search task,,2025.1.1,60.367335234958695,2025-09-30 13h20.04.264051 +0530,
143,0,143,[np.float64(0.2125)],[np.float64(0.2941666666666667)],[1],[0],[0],[1.2219933000014862],['Target'],143,0,143,0,206.95397539999976,,5,206.94423310000275,206.95397539999976,206.95397539999976,0.012502899990067817,207.962717900009,208.16644130001077,[np.float64(0.2125)],[np.float64(0.2941666666666667)],[1],[0],[0],[1.2219933000014862],['Target'],participant 1,001,2025-09-30_13h19.48.322,visual search task,,2025.1.1,60.367335234958695,2025-09-30 13h20.04.264051 +0530,
144,0,144,[np.float64(-0.025)],[np.float64(0.435)],[1],[0],[0],[1.1382222999964142],['Target'],144,0,144,0,208.20841140000266,,10,208.1956852000003,208.20841140000266,208.20841140000266,0.029016000000410713,209.21418700000504,209.3341564000002,[np.float64(-0.025)],[np.float64(0.435)],[1],[0],[0],[1.1382222999964142],['Target'],participant 1,001,2025-09-30_13h19.48.322,visual search task,,2025.1.1,60.367335234958695,2025-09-30 13h20.04.264051 +0530,
145,0,145,[np.float64(-0.12833333333333333)],[np.float64(-0.3375)],[1],[0],[0],[1.438896299994667],['Target'],145,0,145,0,209.3755960999988,,10,209.36298390000593,209.3755960999988,209.3755960999988,0.028616499999770895,210.38189540000167,210.80213280000316,[np.float64(-0.12833333333333333)],[np.float64(-0.3375)],[1],[0],[0],[1.438896299994667],['Target'],participant 1,001,2025-09-30_13h19.48.322,visual search task,,2025.1.1,60.367335234958695,2025-09-30 13h20.04.264051 +0530,
146,0,146,[np.float64(0.14916666666666667)],[np.float64(0.3325)],[1],[0],[0],[1.2219058000046061],['Target'],146,0,146,0,210.84497510000074,,10,210.8310424000083,210.84497510000074,210.84497510000074,0.028691999992588535,211.85088969999924,212.05319400000735,[np.float64(0.14916666666666667)],[np.float64(0.3325)],[1],[0],[0],[1.2219058000046061],['Target'],participant 1,001,2025-09-30_13h19.48.322,visual search task,,2025.1.1,60.367335234958695,2025-09-30 13h20.04.264051 +0530,
147,0,147,[np.float64(-0.44666666666666666)],[np.float64(0.31583333333333335)],[1],[0],[0],[0.9351634000049671],['Target'],147,0,147,0,212.07880110001133,,5,212.0689693000022,212.07880110001133,212.07880110001133,0.01555759999610018,,213.00437780001084,[np.float64(-0.44666666666666666)],[np.float64(0.31583333333333335)],[1],[0],[0],[0.9351634000049671],['Target'],participant 1,001,2025-09-30_13h19.48.322,visual search task,,2025.1.1,60.367335234958695,2025-09-30 13h20.04.264051 +0530,
148,0,148,"[np.float64(-0.21083333333333334), np.float64(-0.23916666666666667)]","[np.float64(-0.37416666666666665), np.float64(-0.38083333333333336)]","[1, 1]","[0, 0]","[0, 0]","[1.4414271999994526, 2.2250146999867866]","[None, 'Target']",148,0,148,0,213.0445774000109,,10,213.03109299999778,213.0445774000109,213.0445774000109,0.026536399993347004,214.05242200000794,215.2563252000109,"[np.float64(-0.21083333333333334), np.float64(-0.23916666666666667)]","[np.float64(-0.37416666666666665), np.float64(-0.38083333333333336)]","[1, 1]","[0, 0]","[0, 0]","[1.4414271999994526, 2.2250146999867866]","[None, 'Target']",participant 1,001,2025-09-30_13h19.48.322,visual search task,,2025.1.1,60.367335234958695,2025-09-30 13h20.04.264051 +0530,
149,0,149,[np.float64(-0.1075)],[np.float64(-0.11333333333333333)],[1],[0],[0],[0.8929095000057714],['Target'],149,0,149,0,215.2972204000107,,10,215.28313710000657,215.2972204000107,215.2972204000107,0.026532400006544776,,216.17627450000145,[np.float64(-0.1075)],[np.float64(-0.11333333333333333)],[1],[0],[0],[0.8929095000057714],['Target'],participant 1,001,2025-09-30_13h19.48.322,visual search task,,2025.1.1,60.367335234958695,2025-09-30 13h20.04.264051 +0530,
150,0,150,[np.float64(-0.48583333333333334)],[np.float64(0.1325)],[1],[0],[0],[0.9191080000018701],['Target'],150,0,150,0,216.1987603000016,,5,216.18967820001126,216.1987603000016,216.1987603000016,0.013239099993370473,,217.10901460000605,[np.float64(-0.48583333333333334)],[np.float64(0.1325)],[1],[0],[0],[0.9191080000018701],['Target'],participant 1,001,2025-09-30_13h19.48.322,visual search task,,2025.1.1,60.367335234958695,2025-09-30 13h20.04.264051 +0530,
151,0,151,[np.float64(0.155)],[np.float64(-0.015)],[1],[0],[0],[1.3188563000003342],['Target'],151,0,151,0,217.13473650001106,,5,217.1244752000057,217.13473650001106,217.13473650001106,0.015282499996828847,218.14069440000458,218.4435705000069,[np.float64(0.155)],[np.float64(-0.015)],[1],[0],[0],[1.3188563000003342],['Target'],participant 1,001,2025-09-30_13h19.48.322,visual search task,,2025.1.1,60.367335234958695,2025-09-30 13h20.04.264051 +0530,
152,0,152,"[np.float64(-0.07916666666666666), np.float64(-0.075)]","[np.float64(0.06), np.float64(0.043333333333333335)]","[1, 1]","[0, 0]","[0, 0]","[0.752571999997599, 1.402222000004258]","[None, 'Target']",152,0,152,0,218.46788850000303,,5,218.4585201000009,218.46788850000303,218.46788850000303,0.01477379999414552,219.47580420000304,219.86095500001102,"[np.float64(-0.07916666666666666), np.float64(-0.075)]","[np.float64(0.06), np.float64(0.043333333333333335)]","[1, 1]","[0, 0]","[0, 0]","[0.752571999997599, 1.402222000004258]","[None, 'Target']",participant 1,001,2025-09-30_13h19.48.322,visual search task,,2025.1.1,60.367335234958695,2025-09-30 13h20.04.264051 +0530,
153,0,153,[np.float64(0.0008333333333333334)],[np.float64(0.03916666666666667)],[1],[0],[0],[1.8391068000055384],['Target'],153,0,153,0,219.9023931999982,,10,219.8895765000052,219.9023931999982,219.9023931999982,0.028248000002349727,220.91042800000287,221.72889589999977,[np.float64(0.0008333333333333334)],[np.float64(0.03916666666666667)],[1],[0],[0],[1.8391068000055384],['Target'],participant 1,001,2025-09-30_13h19.48.322,visual search task,,2025.1.1,60.367335234958695,2025-09-30 13h20.04.264051 +0530,
154,0,154,"[np.float64(0.06166666666666667), np.float64(0.0525)]","[np.float64(-0.45666666666666667), np.float64(-0.4766666666666667)]","[1, 1]","[0, 0]","[0, 0]","[1.8620029999874532, 2.4791164999915054]","[None, 'Target']",154,0,154,0,221.765321400002,,10,221.75386710000748,221.765321400002,221.765321400002,0.024762699991697446,222.77952120000555,224.23316960000375,"[np.float64(0.06166666666666667), np.float64(0.0525)]","[np.float64(-0.45666666666666667), np.float64(-0.4766666666666667)]","[1, 1]","[0, 0]","[0, 0]","[1.8620029999874532, 2.4791164999915054]","[None, 'Target']",participant 1,001,2025-09-30_13h19.48.322,visual search task,,2025.1.1,60.367335234958695,2025-09-30 13h20.04.264051 +0530,
155,0,155,[np.float64(0.0275)],[np.float64(0.11)],[1],[0],[0],[1.3031132999894908],['Target'],155,0,155,0,224.2577722999995,,5,224.24807460000739,224.2577722999995,224.2577722999995,0.01469679998990614,225.26554940000642,225.55139810001128,[np.float64(0.0275)],[np.float64(0.11)],[1],[0],[0],[1.3031132999894908],['Target'],participant 1,001,2025-09-30_13h19.48.322,visual search task,,2025.1.1,60.367335234958695,2025-09-30 13h20.04.264051 +0530,
156,0,156,[np.float64(-0.43583333333333335)],[np.float64(0.32416666666666666)],[1],[0],[0],[1.2694803999911528],['Target'],156,0,156,0,225.5771367999987,,5,225.56702580000274,225.5771367999987,225.5771367999987,0.01543379999930039,226.58363230001123,226.83673490000365,[np.float64(-0.43583333333333335)],[np.float64(0.32416666666666666)],[1],[0],[0],[1.2694803999911528],['Target'],participant 1,001,2025-09-30_13h19.48.322,visual search task,,2025.1.1,60.367335234958695,2025-09-30 13h20.04.264051 +0530,
157,0,157,[np.float64(0.3491666666666667)],[np.float64(0.3641666666666667)],[1],[0],[0],[1.2198201999999583],['Target'],157,0,157,0,226.86055260000285,,5,226.8500428999978,226.86055260000285,226.86055260000285,0.013124899996910244,227.8677383000031,228.07009990001097,[np.float64(0.3491666666666667)],[np.float64(0.3641666666666667)],[1],[0],[0],[1.2198201999999583],['Target'],participant 1,001,2025-09-30_13h19.48.322,visual search task,,2025.1.1,60.367335234958695,2025-09-30 13h20.04.264051 +0530,
158,0,158,[np.float64(-0.205)],[np.float64(-0.16)],[1],[0],[0],[1.1915276000072481],['Target'],158,0,158,0,228.10808840001118,,10,228.09634740000183,228.10808840001118,228.10808840001118,0.026093399996170774,229.1194558999996,229.28811720000522,[np.float64(-0.205)],[np.float64(-0.16)],[1],[0],[0],[1.1915276000072481],['Target'],participant 1,001,2025-09-30_13h19.48.322,visual search task,,2025.1.1,60.367335234958695,2025-09-30 13h20.04.264051 +0530,
159,0,159,[np.float64(0.006666666666666667)],[np.float64(-0.03916666666666667)],[1],[0],[0],[1.8578493999957573],['Target'],159,0,159,0,229.3290732000023,,10,229.31618500000332,229.3290732000023,229.3290732000023,0.027825299999676645,230.33749150000222,231.17426710001018,[np.float64(0.006666666666666667)],[np.float64(-0.03916666666666667)],[1],[0],[0],[1.8578493999957573],['Target'],participant 1,001,2025-09-30_13h19.48.322,visual search task,,2025.1.1,60.367335234958695,2025-09-30 13h20.04.264051 +0530,
160,0,160,[np.float64(-0.4666666666666667)],[np.float64(0.21083333333333334)],[1],[0],[0],[1.2518786000000546],['Target'],160,0,160,0,231.19983579999825,,5,231.1897813000105,231.19983579999825,231.19983579999825,0.015303300009691156,232.20651499999803,232.44195819999732,[np.float64(-0.4666666666666667)],[np.float64(0.21083333333333334)],[1],[0],[0],[1.2518786000000546],['Target'],participant 1,001,2025-09-30_13h19.48.322,visual search task,,2025.1.1,60.367335234958695,2025-09-30 13h20.04.264051 +0530,
161,0,161,[np.float64(-0.36)],[np.float64(-0.4008333333333333)],[1],[0],[0],[1.4405963000026532],['Target'],161,0,161,0,232.48173569999926,,10,232.46969430000172,232.48173569999926,232.48173569999926,0.027553400010219775,233.49084550001135,233.91048760000558,[np.float64(-0.36)],[np.float64(-0.4008333333333333)],[1],[0],[0],[1.4405963000026532],['Target'],participant 1,001,2025-09-30_13h19.48.322,visual search task,,2025.1.1,60.367335234958695,2025-09-30 13h20.04.264051 +0530,
162,0,162,[np.float64(0.27416666666666667)],[np.float64(0.36833333333333335)],[1],[0],[0],[1.192799800002831],['Target'],162,0,162,0,233.94992340001045,,10,233.93678100001125,233.94992340001045,233.94992340001045,0.026133999999728985,234.95926590000454,235.1298078000109,[np.float64(0.27416666666666667)],[np.float64(0.36833333333333335)],[1],[0],[0],[1.192799800002831],['Target'],participant 1,001,2025-09-30_13h19.48.322,visual search task,,2025.1.1,60.367335234958695,2025-09-30 13h20.04.264051 +0530,
163,0,163,"[np.float64(-0.22083333333333333), np.float64(-0.22666666666666666)]","[np.float64(-0.11416666666666667), np.float64(-0.11)]","[1, 1]","[0, 0]","[0, 0]","[1.1180241999973077, 1.6175332999991952]","[None, 'Target']",163,0,163,0,235.1553971000103,,5,235.14518060001137,235.1553971000103,235.1553971000103,0.015141500000027008,236.16355130000738,236.76298369999859,"[np.float64(-0.22083333333333333), np.float64(-0.22666666666666666)]","[np.float64(-0.11416666666666667), np.float64(-0.11)]","[1, 1]","[0, 0]","[0, 0]","[1.1180241999973077, 1.6175332999991952]","[None, 'Target']",participant 1,001,2025-09-30_13h19.48.322,visual search task,,2025.1.1,60.367335234958695,2025-09-30 13h20.04.264051 +0530,
164,0,164,[np.float64(-0.06833333333333333)],[np.float64(-0.049166666666666664)],[1],[0],[0],[1.153264799999306],['Target'],164,0,164,0,236.78710790000332,,5,236.7774752999976,236.78710790000332,236.78710790000332,0.014237299998058006,237.79574110000976,237.9309731000103,[np.float64(-0.06833333333333333)],[np.float64(-0.049166666666666664)],[1],[0],[0],[1.153264799999306],['Target'],participant 1,001,2025-09-30_13h19.48.322,visual search task,,2025.1.1,60.367335234958695,2025-09-30 13h20.04.264051 +0530,
165,0,165,[np.float64(0.4741666666666667)],[np.float64(-0.3425)],[1],[0],[0],[1.3574058000085643],['Target'],165,0,165,0,237.97330019999936,,10,237.95890990000044,237.97330019999936,237.97330019999936,0.02781430000322871,238.98028640000848,239.31654720001097,[np.float64(0.4741666666666667)],[np.float64(-0.3425)],[1],[0],[0],[1.3574058000085643],['Target'],participant 1,001,2025-09-30_13h19.48.322,visual search task,,2025.1.1,60.367335234958695,2025-09-30 13h20.04.264051 +0530,
166,0,166,[np.float64(-0.3383333333333333)],[np.float64(-0.06833333333333333)],[1],[0],[0],[1.5065045999945141],['Target'],166,0,166,0,239.35873040001024,,10,239.34459980000975,239.35873040001024,239.35873040001024,0.027903299996978603,240.3651291999995,240.8513837000064,[np.float64(-0.3383333333333333)],[np.float64(-0.06833333333333333)],[1],[0],[0],[1.5065045999945141],['Target'],participant 1,001,2025-09-30_13h19.48.322,visual search task,,2025.1.1,60.367335234958695,2025-09-30 13h20.04.264051 +0530,
167,0,167,[np.float64(0.15083333333333335)],[np.float64(0.2575)],[1],[0],[0],[1.1766399000043748],['Target'],167,0,167,0,240.88904890000413,,10,240.8766641000111,240.88904890000413,240.88904890000413,0.02504449999833014,241.90015210000274,242.053545200004,[np.float64(0.15083333333333335)],[np.float64(0.2575)],[1],[0],[0],[1.1766399000043748],['Target'],participant 1,001,2025-09-30_13h19.48.322,visual search task,,2025.1.1,60.367335234958695,2025-09-30 13h20.04.264051 +0530,
168,0,168,[np.float64(0.3275)],[np.float64(0.1675)],[1],[0],[0],[0.9064073000045028],['Target'],168,0,168,0,242.09336270000495,,10,242.08065670001088,242.09336270000495,242.09336270000495,0.02690900000743568,,242.98726819999865,[np.float64(0.3275)],[np.float64(0.1675)],[1],[0],[0],[0.9064073000045028],['Target'],participant 1,001,2025-09-30_13h19.48.322,visual search task,,2025.1.1,60.367335234958695,2025-09-30 13h20.04.264051 +0530,
169,0,169,[np.float64(-0.10833333333333334)],[np.float64(-0.09166666666666666)],[1],[0],[0],[0.9524278000026243],['Target'],169,0,169,0,243.01293340000848,,5,243.00257900000724,243.01293340000848,243.01293340000848,0.015089600012288429,,243.9552507000044,[np.float64(-0.10833333333333334)],[np.float64(-0.09166666666666666)],[1],[0],[0],[0.9524278000026243],['Target'],participant 1,001,2025-09-30_13h19.48.322,visual search task,,2025.1.1,60.367335234958695,2025-09-30 13h20.04.264051 +0530,
170,0,170,[np.float64(0.27166666666666667)],[np.float64(0.47333333333333333)],[1],[0],[0],[2.335166199991363],['Target'],170,0,170,0,243.98209610000777,,5,243.97139720000268,243.98209610000777,243.98209610000777,0.015973800007486716,244.98719379999966,246.30678500000795,[np.float64(0.27166666666666667)],[np.float64(0.47333333333333333)],[1],[0],[0],[2.335166199991363],['Target'],participant 1,001,2025-09-30_13h19.48.322,visual search task,,2025.1.1,60.367335234958695,2025-09-30 13h20.04.264051 +0530,
171,0,171,"[np.float64(-0.11833333333333333), np.float64(-0.15333333333333332)]","[np.float64(0.45416666666666666), np.float64(0.44416666666666665)]","[1, 1]","[0, 0]","[0, 0]","[0.8069161999883363, 1.3564186999865342]","[None, 'Target']",171,0,171,0,246.3497639999987,,10,246.3354096000112,246.3497639999987,246.3497639999987,0.02842909999890253,247.35627660001046,247.69206159999885,"[np.float64(-0.11833333333333333), np.float64(-0.15333333333333332)]","[np.float64(0.45416666666666666), np.float64(0.44416666666666665)]","[1, 1]","[0, 0]","[0, 0]","[0.8069161999883363, 1.3564186999865342]","[None, 'Target']",participant 1,001,2025-09-30_13h19.48.322,visual search task,,2025.1.1,60.367335234958695,2025-09-30 13h20.04.264051 +0530,
172,0,172,[np.float64(0.24833333333333332)],[np.float64(-0.09666666666666666)],[1],[0],[0],[1.1862878999963868],['Target'],172,0,172,0,247.71728959999746,,5,247.7069613000058,247.71728959999746,247.71728959999746,0.014711700001498684,248.72457849999773,248.89349380000203,[np.float64(0.24833333333333332)],[np.float64(-0.09666666666666666)],[1],[0],[0],[1.1862878999963868],['Target'],participant 1,001,2025-09-30_13h19.48.322,visual search task,,2025.1.1,60.367335234958695,2025-09-30 13h20.04.264051 +0530,
173,0,173,"[np.float64(0.44583333333333336), np.float64(0.46166666666666667)]","[np.float64(-0.13166666666666665), np.float64(-0.14)]","[1, 1]","[0, 0]","[0, 0]","[0.803901199993561, 1.6537210999958916]","[None, 'Target']",173,0,173,0,248.91723160000402,,5,248.90775430000213,248.91723160000402,248.91723160000402,0.014133100004983135,249.92670770001132,250.5617867999972,"[np.float64(0.44583333333333336), np.float64(0.46166666666666667)]","[np.float64(-0.13166666666666665), np.float64(-0.14)]","[1, 1]","[0, 0]","[0, 0]","[0.803901199993561, 1.6537210999958916]","[None, 'Target']",participant 1,001,2025-09-30_13h19.48.322,visual search task,,2025.1.1,60.367335234958695,2025-09-30 13h20.04.264051 +0530,
174,0,174,"[np.float64(-0.3825), np.float64(-0.38916666666666666)]","[np.float64(0.1175), np.float64(0.12)]","[1, 1]","[0, 0]","[0, 0]","[1.290915399993537, 1.7908865999925183]","[None, 'Target']",174,0,174,0,250.6023697000055,,10,250.58944809999957,250.6023697000055,250.6023697000055,0.027467299994896166,251.61120400000073,252.38059880000947,"[np.float64(-0.3825), np.float64(-0.38916666666666666)]","[np.float64(0.1175), np.float64(0.12)]","[1, 1]","[0, 0]","[0, 0]","[1.290915399993537, 1.7908865999925183]","[None, 'Target']",participant 1,001,2025-09-30_13h19.48.322,visual search task,,2025.1.1,60.367335234958695,2025-09-30 13h20.04.264051 +0530,
175,0,175,[np.float64(-0.41)],[np.float64(0.2475)],[1],[0],[0],[1.240672200001427],['Target'],175,0,175,0,252.42041340000287,,10,252.40823539999838,252.42041340000287,252.42041340000287,0.027388599992264062,253.42969620000804,253.64914740000677,[np.float64(-0.41)],[np.float64(0.2475)],[1],[0],[0],[1.240672200001427],['Target'],participant 1,001,2025-09-30_13h19.48.322,visual search task,,2025.1.1,60.367335234958695,2025-09-30 13h20.04.264051 +0530,
176,0,176,[np.float64(0.22916666666666666)],[np.float64(0.008333333333333333)],[1],[0],[0],[0.9686228000064148],['Target'],176,0,176,0,253.67431729999953,,5,253.66422740000417,253.67431729999953,253.67431729999953,0.014868300000671297,,254.63309300001129,[np.float64(0.22916666666666666)],[np.float64(0.008333333333333333)],[1],[0],[0],[0.9686228000064148],['Target'],participant 1,001,2025-09-30_13h19.48.322,visual search task,,2025.1.1,60.367335234958695,2025-09-30 13h20.04.264051 +0530,
177,0,177,[np.float64(0.33166666666666667)],[np.float64(-0.07666666666666666)],[1],[0],[0],[1.1399063999997452],['Target'],177,0,177,0,254.67426140001044,,10,254.6610556000087,254.67426140001044,254.67426140001044,0.027791300002718344,255.68195230000129,255.80121010000585,[np.float64(0.33166666666666667)],[np.float64(-0.07666666666666666)],[1],[0],[0],[1.1399063999997452],['Target'],participant 1,001,2025-09-30_13h19.48.322,visual search task,,2025.1.1,60.367335234958695,2025-09-30 13h20.04.264051 +0530,
178,0,178,[np.float64(-0.37583333333333335)],[np.float64(-0.3491666666666667)],[1],[0],[0],[1.4211178999976255],['Target'],178,0,178,0,255.8449752000015,,10,255.83056500001112,255.8449752000015,255.8449752000015,0.029148699992219917,256.8494378000032,257.251906400008,[np.float64(-0.37583333333333335)],[np.float64(-0.3491666666666667)],[1],[0],[0],[1.4211178999976255],['Target'],participant 1,001,2025-09-30_13h19.48.322,visual search task,,2025.1.1,60.367335234958695,2025-09-30 13h20.04.264051 +0530,
179,0,179,[np.float64(-0.4875)],[np.float64(0.2775)],[1],[0],[0],[2.729659200005699],['Target'],179,0,179,0,257.2887802000041,,10,257.2764548999985,257.2887802000041,257.2887802000041,0.024403600007644854,258.5094719000044,260.00633090001065,[np.float64(-0.4875)],[np.float64(0.2775)],[1],[0],[0],[2.729659200005699],['Target'],participant 1,001,2025-09-30_13h19.48.322,visual search task,,2025.1.1,60.367335234958695,2025-09-30 13h20.04.264051 +0530,
180,0,180,[np.float64(-0.043333333333333335)],[np.float64(0.44916666666666666)],[1],[0],[0],[1.2080394999939017],['Target'],180,0,180,0,260.0471370000014,,10,260.0333408000006,260.0471370000014,260.0471370000014,0.02677870000479743,261.05445750000945,261.24161290000484,[np.float64(-0.043333333333333335)],[np.float64(0.44916666666666666)],[1],[0],[0],[1.2080394999939017],['Target'],participant 1,001,2025-09-30_13h19.48.322,visual search task,,2025.1.1,60.367335234958695,2025-09-30 13h20.04.264051 +0530,
181,0,181,[np.float64(0.4633333333333333)],[np.float64(-0.3258333333333333)],[1],[0],[0],[1.8549733999971068],['Target'],181,0,181,0,261.2853218000091,,10,261.2707703000051,261.2853218000091,261.2853218000091,0.028927299994393252,262.289237200006,263.1259742000111,[np.float64(0.4633333333333333)],[np.float64(-0.3258333333333333)],[1],[0],[0],[1.8549733999971068],['Target'],participant 1,001,2025-09-30_13h19.48.322,visual search task,,2025.1.1,60.367335234958695,2025-09-30 13h20.04.264051 +0530,
182,0,182,"[np.float64(-0.39166666666666666), np.float64(-0.4083333333333333)]","[np.float64(0.008333333333333333), np.float64(-0.015833333333333335)]","[1, 1]","[0, 0]","[0, 0]","[1.156550600004266, 1.6730943000002299]","[None, 'Target']",182,0,182,0,263.16775320000306,,10,263.153547599999,263.16775320000306,263.16775320000306,0.02742209999996703,264.17465990000346,264.82690820000425,"[np.float64(-0.39166666666666666), np.float64(-0.4083333333333333)]","[np.float64(0.008333333333333333), np.float64(-0.015833333333333335)]","[1, 1]","[0, 0]","[0, 0]","[1.156550600004266, 1.6730943000002299]","[None, 'Target']",participant 1,001,2025-09-30_13h19.48.322,visual search task,,2025.1.1,60.367335234958695,2025-09-30 13h20.04.264051 +0530,
183,0,183,[np.float64(-0.47583333333333333)],[np.float64(-0.006666666666666667)],[1],[0],[0],[0.6699592000077246],['Target'],183,0,183,0,264.8510111000069,,5,264.8420602000115,264.8510111000069,264.8510111000069,0.014895799991791137,,265.51232110000274,[np.float64(-0.47583333333333333)],[np.float64(-0.006666666666666667)],[1],[0],[0],[0.6699592000077246],['Target'],participant 1,001,2025-09-30_13h19.48.322,visual search task,,2025.1.1,60.367335234958695,2025-09-30 13h20.04.264051 +0530,
184,0,184,"[np.float64(-0.21833333333333332), np.float64(-0.21)]","[np.float64(-0.44666666666666666), np.float64(-0.4508333333333333)]","[1, 1]","[0, 0]","[0, 0]","[1.3407855999976164, 1.8228202999889618]","[None, 'Target']",184,0,184,0,265.55411290000484,,10,265.54014460000326,265.55411290000484,265.55411290000484,0.02764089999254793,266.5606666000094,267.36318620000384,"[np.float64(-0.21833333333333332), np.float64(-0.21)]","[np.float64(-0.44666666666666666), np.float64(-0.4508333333333333)]","[1, 1]","[0, 0]","[0, 0]","[1.3407855999976164, 1.8228202999889618]","[None, 'Target']",participant 1,001,2025-09-30_13h19.48.322,visual search task,,2025.1.1,60.367335234958695,2025-09-30 13h20.04.264051 +0530,
185,0,185,[np.float64(0.08416666666666667)],[np.float64(-0.21416666666666667)],[1],[0],[0],[1.093161400000099],['Target'],185,0,185,0,267.4020482000051,,10,267.3898709000059,267.4020482000051,267.4020482000051,0.026506800000788644,268.4132992000086,268.48324980000325,[np.float64(0.08416666666666667)],[np.float64(-0.21416666666666667)],[1],[0],[0],[1.093161400000099],['Target'],participant 1,001,2025-09-30_13h19.48.322,visual search task,,2025.1.1,60.367335234958695,2025-09-30 13h20.04.264051 +0530,
186,0,186,[np.float64(0.09666666666666666)],[np.float64(0.3883333333333333)],[1],[0],[0],[1.2561028000054648],['Target'],186,0,186,0,268.5226394000056,,10,268.50960869999835,268.5226394000056,268.5226394000056,0.02611350000370294,269.53061320001143,269.76591760000156,[np.float64(0.09666666666666666)],[np.float64(0.3883333333333333)],[1],[0],[0],[1.2561028000054648],['Target'],participant 1,001,2025-09-30_13h19.48.322,visual search task,,2025.1.1,60.367335234958695,2025-09-30 13h20.04.264051 +0530,
