thisN,thisTrialN,thisRepN,mouse.x,mouse.y,mouse.leftButton,mouse.midButton,mouse.rightButton,mouse.time,mouse.clicked_name,trials.thisRepN,trials.thisTrialN,trials.thisN,trials.thisIndex,thisRow.t,notes,num_distr,trial.started,fixation.started,Target.started,mouse.started,fixation.stopped,trial.stopped,trials.mouse.x,trials.mouse.y,trials.mouse.leftButton,trials.mouse.midButton,trials.mouse.rightButton,trials.mouse.time,trials.mouse.clicked_name,participant,session,date,expName,expVersion,psychopyVersion,frameRate,expStart,
0,0,0,[np.float64(0.3908333333333333)],[np.float64(-0.12166666666666667)],[1],[0],[0],[1.0182863999943947],['Target'],0,0,0,0,0.03999370000383351,,5,0.027566599994315766,0.03999370000383351,0.03999370000383351,0.027603199996519834,1.042059600003995,1.0460977000038838,[np.float64(0.3908333333333333)],[np.float64(-0.12166666666666667)],[1],[0],[0],[1.0182863999943947],['Target'],PARTICIPANT 2,001,2025-09-30_13h26.40.633,visual search task,,2025.1.1,60.24542782182038,2025-09-30 13h30.35.466670 +0530,
1,0,1,"[np.float64(0.43), np.float64(0.44333333333333336)]","[np.float64(0.1675), np.float64(0.15333333333333332)]","[1, 1]","[0, 0]","[0, 0]","[0.9845789999963017, 1.6354026999906637]","[None, 'Target']",1,0,1,0,1.0898006000061287,,10,1.0771099999983562,1.0898006000061287,1.0898006000061287,0.030821400010609068,2.092431900004158,2.712746100005461,"[np.float64(0.43), np.float64(0.44333333333333336)]","[np.float64(0.1675), np.float64(0.15333333333333332)]","[1, 1]","[0, 0]","[0, 0]","[0.9845789999963017, 1.6354026999906637]","[None, 'Target']",PARTICIPANT 2,001,2025-09-30_13h26.40.633,visual search task,,2025.1.1,60.24542782182038,2025-09-30 13h30.35.466670 +0530,
2,0,2,[np.float64(-0.335)],[np.float64(-0.45)],[1],[0],[0],[1.5058087999932468],['Target'],2,0,2,0,2.756514699998661,,10,2.741985000000568,2.756514699998661,2.756514699998661,0.029049499993561767,3.761230300005991,4.248061399994185,[np.float64(-0.335)],[np.float64(-0.45)],[1],[0],[0],[1.5058087999932468],['Target'],PARTICIPANT 2,001,2025-09-30_13h26.40.633,visual search task,,2025.1.1,60.24542782182038,2025-09-30 13h30.35.466670 +0530,
3,0,3,[np.float64(0.185)],[np.float64(-0.37083333333333335)],[1],[0],[0],[1.139706899994053],['Target'],3,0,3,0,4.291082600000664,,10,4.276407299999846,4.291082600000664,4.291082600000664,0.02819469998939894,5.296585200005211,5.416366000004928,[np.float64(0.185)],[np.float64(-0.37083333333333335)],[1],[0],[0],[1.139706899994053],['Target'],PARTICIPANT 2,001,2025-09-30_13h26.40.633,visual search task,,2025.1.1,60.24542782182038,2025-09-30 13h30.35.466670 +0530,
4,0,4,[np.float64(0.11)],[np.float64(-0.0225)],[1],[0],[0],[1.3864826000062749],['Target'],4,0,4,0,5.441619899997022,,5,5.431917699999758,5.441619899997022,5.441619899997022,0.015339500008849427,6.447731099993689,6.818627999993623,[np.float64(0.11)],[np.float64(-0.0225)],[1],[0],[0],[1.3864826000062749],['Target'],PARTICIPANT 2,001,2025-09-30_13h26.40.633,visual search task,,2025.1.1,60.24542782182038,2025-09-30 13h30.35.466670 +0530,
5,0,5,[np.float64(0.25)],[np.float64(-0.49833333333333335)],[1],[0],[0],[1.9722803000040585],['Target'],5,0,5,0,6.8592430999997305,,10,6.847046099996078,6.8592430999997305,6.8592430999997305,0.02828169999702368,7.866048900003079,8.819540399999823,[np.float64(0.25)],[np.float64(-0.49833333333333335)],[1],[0],[0],[1.9722803000040585],['Target'],PARTICIPANT 2,001,2025-09-30_13h26.40.633,visual search task,,2025.1.1,60.24542782182038,2025-09-30 13h30.35.466670 +0530,
6,0,6,[np.float64(-0.19416666666666665)],[np.float64(0.44333333333333336)],[1],[0],[0],[2.77571820000594],['Target'],6,0,6,0,8.861175600002753,,10,8.847932200005744,8.861175600002753,8.861175600002753,0.0281816000060644,9.87124940000649,11.623886999994284,[np.float64(-0.19416666666666665)],[np.float64(0.44333333333333336)],[1],[0],[0],[2.77571820000594],['Target'],PARTICIPANT 2,001,2025-09-30_13h26.40.633,visual search task,,2025.1.1,60.24542782182038,2025-09-30 13h30.35.466670 +0530,
7,0,7,[np.float64(-0.3466666666666667)],[np.float64(-0.17666666666666667)],[1],[0],[0],[1.2042957999947248],['Target'],7,0,7,0,11.648509799997555,,5,11.638276300000143,11.648509799997555,11.648509799997555,0.014234400005079806,12.65505220000341,12.842825400002766,[np.float64(-0.3466666666666667)],[np.float64(-0.17666666666666667)],[1],[0],[0],[1.2042957999947248],['Target'],PARTICIPANT 2,001,2025-09-30_13h26.40.633,visual search task,,2025.1.1,60.24542782182038,2025-09-30 13h30.35.466670 +0530,
8,0,8,[np.float64(0.4241666666666667)],[np.float64(-0.225)],[1],[0],[0],[1.0697461999952793],['Target'],8,0,8,0,12.867876799995429,,5,12.857890100000077,12.867876799995429,12.867876799995429,0.014886100005242042,13.872404099995038,13.927877199996146,[np.float64(0.4241666666666667)],[np.float64(-0.225)],[1],[0],[0],[1.0697461999952793],['Target'],PARTICIPANT 2,001,2025-09-30_13h26.40.633,visual search task,,2025.1.1,60.24542782182038,2025-09-30 13h30.35.466670 +0530,
9,0,9,"[np.float64(-0.11666666666666667), np.float64(-0.10166666666666667)]","[np.float64(0.2175), np.float64(0.22416666666666665)]","[1, 1]","[0, 0]","[0, 0]","[1.0865484999958426, 1.603054000006523]","[None, 'Target']",9,0,9,0,13.973044200000004,,10,13.957353100006003,13.973044200000004,13.973044200000004,0.0293043999990914,14.974013600003673,15.560681100003421,"[np.float64(-0.11666666666666667), np.float64(-0.10166666666666667)]","[np.float64(0.2175), np.float64(0.22416666666666665)]","[1, 1]","[0, 0]","[0, 0]","[1.0865484999958426, 1.603054000006523]","[None, 'Target']",PARTICIPANT 2,001,2025-09-30_13h26.40.633,visual search task,,2025.1.1,60.24542782182038,2025-09-30 13h30.35.466670 +0530,
10,0,10,[np.float64(-0.335)],[np.float64(-0.06833333333333333)],[1],[0],[0],[1.0517855000070995],['Target'],10,0,10,0,15.586813800007803,,5,15.576815699998406,15.586813800007803,15.586813800007803,0.015882300009252504,16.592171700001927,16.628867199993692,[np.float64(-0.335)],[np.float64(-0.06833333333333333)],[1],[0],[0],[1.0517855000070995],['Target'],PARTICIPANT 2,001,2025-09-30_13h26.40.633,visual search task,,2025.1.1,60.24542782182038,2025-09-30 13h30.35.466670 +0530,
11,0,11,[np.float64(0.4425)],[np.float64(-0.4)],[1],[0],[0],[1.2214524000009988],['Target'],11,0,11,0,16.67167349999363,,10,16.658847500002594,16.67167349999363,16.67167349999363,0.029794599991873838,17.676571100004367,17.880588300002273,[np.float64(0.4425)],[np.float64(-0.4)],[1],[0],[0],[1.2214524000009988],['Target'],PARTICIPANT 2,001,2025-09-30_13h26.40.633,visual search task,,2025.1.1,60.24542782182038,2025-09-30 13h30.35.466670 +0530,
12,0,12,[np.float64(-0.18166666666666667)],[np.float64(-0.20333333333333334)],[1],[0],[0],[1.1543079999973997],['Target'],12,0,12,0,17.922282500003348,,10,17.90912290000415,17.922282500003348,17.922282500003348,0.028124999997089617,18.92817230000219,19.063713700001244,[np.float64(-0.18166666666666667)],[np.float64(-0.20333333333333334)],[1],[0],[0],[1.1543079999973997],['Target'],PARTICIPANT 2,001,2025-09-30_13h26.40.633,visual search task,,2025.1.1,60.24542782182038,2025-09-30 13h30.35.466670 +0530,
13,0,13,"[np.float64(-0.3333333333333333), np.float64(-0.32666666666666666)]","[np.float64(-0.10416666666666667), np.float64(-0.11)]","[1, 1]","[0, 0]","[0, 0]","[0.6583684999932302, 1.1072204999945825]","[None, 'Target']",13,0,13,0,19.10334430000512,,10,19.090520199999446,19.10334430000512,19.10334430000512,0.02655619999859482,20.113006800005678,20.197964499995578,"[np.float64(-0.3333333333333333), np.float64(-0.32666666666666666)]","[np.float64(-0.10416666666666667), np.float64(-0.11)]","[1, 1]","[0, 0]","[0, 0]","[0.6583684999932302, 1.1072204999945825]","[None, 'Target']",PARTICIPANT 2,001,2025-09-30_13h26.40.633,visual search task,,2025.1.1,60.24542782182038,2025-09-30 13h30.35.466670 +0530,
14,0,14,"[np.float64(-0.07333333333333333), np.float64(-0.065)]","[np.float64(-0.4841666666666667), np.float64(-0.48)]","[1, 1]","[0, 0]","[0, 0]","[1.1382007000065641, 1.6028802000073483]","[None, 'Target']",14,0,14,0,20.222564199997578,,5,20.21355470000708,20.222564199997578,20.222564199997578,0.015321300001232885,21.230666400006157,21.816668200001004,"[np.float64(-0.07333333333333333), np.float64(-0.065)]","[np.float64(-0.4841666666666667), np.float64(-0.48)]","[1, 1]","[0, 0]","[0, 0]","[1.1382007000065641, 1.6028802000073483]","[None, 'Target']",PARTICIPANT 2,001,2025-09-30_13h26.40.633,visual search task,,2025.1.1,60.24542782182038,2025-09-30 13h30.35.466670 +0530,
15,0,15,[np.float64(-0.4816666666666667)],[np.float64(-0.2991666666666667)],[1],[0],[0],[0.9016490000067279],['Target'],15,0,15,0,21.84268859999429,,5,21.833017299999483,21.84268859999429,21.84268859999429,0.016153300006408244,,22.73491450000438,[np.float64(-0.4816666666666667)],[np.float64(-0.2991666666666667)],[1],[0],[0],[0.9016490000067279],['Target'],PARTICIPANT 2,001,2025-09-30_13h26.40.633,visual search task,,2025.1.1,60.24542782182038,2025-09-30 13h30.35.466670 +0530,
16,0,16,[np.float64(0.1475)],[np.float64(0.49916666666666665)],[1],[0],[0],[1.538093299997854],['Target'],16,0,16,0,22.759975299995858,,5,22.74935949999781,22.759975299995858,22.759975299995858,0.014307599994936027,23.76678570000513,24.287661800000933,[np.float64(0.1475)],[np.float64(0.49916666666666665)],[1],[0],[0],[1.538093299997854],['Target'],PARTICIPANT 2,001,2025-09-30_13h26.40.633,visual search task,,2025.1.1,60.24542782182038,2025-09-30 13h30.35.466670 +0530,
17,0,17,"[np.float64(-0.3541666666666667), np.float64(-0.3525), np.float64(-0.35), np.float64(-0.3416666666666667)]","[np.float64(0.5), np.float64(0.5), np.float64(0.5), np.float64(0.5)]","[1, 1, 1, 1]","[0, 0, 0, 0]","[0, 0, 0, 0]","[1.6857499000034295, 2.1184978000092087, 2.585896100004902, 3.119881999999052]","[None, None, None, 'Target']",17,0,17,0,24.313365900001372,,5,24.303285400004825,24.313365900001372,24.313365900001372,0.015432600004714914,25.318503500006045,27.42342869999993,"[np.float64(-0.3541666666666667), np.float64(-0.3525), np.float64(-0.35), np.float64(-0.3416666666666667)]","[np.float64(0.5), np.float64(0.5), np.float64(0.5), np.float64(0.5)]","[1, 1, 1, 1]","[0, 0, 0, 0]","[0, 0, 0, 0]","[1.6857499000034295, 2.1184978000092087, 2.585896100004902, 3.119881999999052]","[None, None, None, 'Target']",PARTICIPANT 2,001,2025-09-30_13h26.40.633,visual search task,,2025.1.1,60.24542782182038,2025-09-30 13h30.35.466670 +0530,
18,0,18,[np.float64(-0.1025)],[np.float64(-0.42916666666666664)],[1],[0],[0],[1.4576233999978285],['Target'],18,0,18,0,27.46352809999371,,10,27.450307999999495,27.46352809999371,27.46352809999371,0.026602500001899898,28.474033899998176,28.908208199994988,[np.float64(-0.1025)],[np.float64(-0.42916666666666664)],[1],[0],[0],[1.4576233999978285],['Target'],PARTICIPANT 2,001,2025-09-30_13h26.40.633,visual search task,,2025.1.1,60.24542782182038,2025-09-30 13h30.35.466670 +0530,
19,0,19,[np.float64(0.44166666666666665)],[np.float64(0.0075)],[1],[0],[0],[1.0726762999984203],['Target'],19,0,19,0,28.949817400003667,,10,28.937020900004427,28.949817400003667,28.949817400003667,0.028610099994693883,29.95700969999598,30.009954499997548,[np.float64(0.44166666666666665)],[np.float64(0.0075)],[1],[0],[0],[1.0726762999984203],['Target'],PARTICIPANT 2,001,2025-09-30_13h26.40.633,visual search task,,2025.1.1,60.24542782182038,2025-09-30 13h30.35.466670 +0530,
20,0,20,[np.float64(-0.35333333333333333)],[np.float64(-0.14333333333333334)],[1],[0],[0],[1.521180000010645],['Target'],20,0,20,0,30.03448539999954,,5,30.024168100004317,30.03448539999954,30.03448539999954,0.013995300003443845,31.041367900004843,31.545599000004586,[np.float64(-0.35333333333333333)],[np.float64(-0.14333333333333334)],[1],[0],[0],[1.521180000010645],['Target'],PARTICIPANT 2,001,2025-09-30_13h26.40.633,visual search task,,2025.1.1,60.24542782182038,2025-09-30 13h30.35.466670 +0530,
21,0,21,[np.float64(-0.47583333333333333)],[np.float64(0.1625)],[1],[0],[0],[1.121199199988041],['Target'],21,0,21,0,31.569529200001853,,5,31.559283399998094,31.569529200001853,31.569529200001853,0.01347659999737516,32.57822500000475,32.68069100000139,[np.float64(-0.47583333333333333)],[np.float64(0.1625)],[1],[0],[0],[1.121199199988041],['Target'],PARTICIPANT 2,001,2025-09-30_13h26.40.633,visual search task,,2025.1.1,60.24542782182038,2025-09-30 13h30.35.466670 +0530,
22,0,22,[np.float64(-0.058333333333333334)],[np.float64(-0.2375)],[1],[0],[0],[1.2694867999962298],['Target'],22,0,22,0,32.72426149999956,,10,32.71009229999618,32.72426149999956,32.72426149999956,0.029237900002044626,33.7275673999975,33.979858499995316,[np.float64(-0.058333333333333334)],[np.float64(-0.2375)],[1],[0],[0],[1.2694867999962298],['Target'],PARTICIPANT 2,001,2025-09-30_13h26.40.633,visual search task,,2025.1.1,60.24542782182038,2025-09-30 13h30.35.466670 +0530,
23,0,23,"[np.float64(0.4125), np.float64(0.4125), np.float64(0.425)]","[np.float64(-0.015), np.float64(-0.015), np.float64(-0.0125)]","[1, 1, 1]","[0, 0, 0]","[0, 0, 0]","[1.2050138000049628, 1.8544446000014432, 2.3548409000068204]","[None, None, 'Target']",23,0,23,0,34.00526879999961,,5,33.99439180000627,34.00526879999961,34.00526879999961,0.014318299989099614,35.01346899999771,36.34946850000415,"[np.float64(0.4125), np.float64(0.4125), np.float64(0.425)]","[np.float64(-0.015), np.float64(-0.015), np.float64(-0.0125)]","[1, 1, 1]","[0, 0, 0]","[0, 0, 0]","[1.2050138000049628, 1.8544446000014432, 2.3548409000068204]","[None, None, 'Target']",PARTICIPANT 2,001,2025-09-30_13h26.40.633,visual search task,,2025.1.1,60.24542782182038,2025-09-30 13h30.35.466670 +0530,
24,0,24,[np.float64(0.13916666666666666)],[np.float64(0.1725)],[1],[0],[0],[0.9435777000035159],['Target'],24,0,24,0,36.389983400003985,,10,36.376226299995324,36.389983400003985,36.389983400003985,0.02656359999673441,,37.320059399993625,[np.float64(0.13916666666666666)],[np.float64(0.1725)],[1],[0],[0],[0.9435777000035159],['Target'],PARTICIPANT 2,001,2025-09-30_13h26.40.633,visual search task,,2025.1.1,60.24542782182038,2025-09-30 13h30.35.466670 +0530,
25,0,25,[np.float64(-0.25833333333333336)],[np.float64(-0.08)],[1],[0],[0],[0.9000948999891989],['Target'],25,0,25,0,37.34568470000522,,5,37.335207800002536,37.34568470000522,37.34568470000522,0.014851200001430698,,38.235572300007334,[np.float64(-0.25833333333333336)],[np.float64(-0.08)],[1],[0],[0],[0.9000948999891989],['Target'],PARTICIPANT 2,001,2025-09-30_13h26.40.633,visual search task,,2025.1.1,60.24542782182038,2025-09-30 13h30.35.466670 +0530,
26,0,26,"[np.float64(0.43166666666666664), np.float64(0.4116666666666667)]","[np.float64(-0.28583333333333333), np.float64(-0.29583333333333334)]","[1, 1]","[0, 0]","[0, 0]","[1.2026842999912333, 1.8026975999964634]","[None, 'Target']",26,0,26,0,38.26125229999889,,5,38.25083380000433,38.26125229999889,38.26125229999889,0.015084499988006428,39.26674789999379,40.053780500005814,"[np.float64(0.43166666666666664), np.float64(0.4116666666666667)]","[np.float64(-0.28583333333333333), np.float64(-0.29583333333333334)]","[1, 1]","[0, 0]","[0, 0]","[1.2026842999912333, 1.8026975999964634]","[None, 'Target']",PARTICIPANT 2,001,2025-09-30_13h26.40.633,visual search task,,2025.1.1,60.24542782182038,2025-09-30 13h30.35.466670 +0530,
27,0,27,[np.float64(-0.18916666666666668)],[np.float64(0.25833333333333336)],[1],[0],[0],[1.1690794000023743],['Target'],27,0,27,0,40.0798727000074,,5,40.06933830000344,40.0798727000074,40.0798727000074,0.01535600000352133,41.08613470000273,41.238681999995606,[np.float64(-0.18916666666666668)],[np.float64(0.25833333333333336)],[1],[0],[0],[1.1690794000023743],['Target'],PARTICIPANT 2,001,2025-09-30_13h26.40.633,visual search task,,2025.1.1,60.24542782182038,2025-09-30 13h30.35.466670 +0530,
28,0,28,[np.float64(0.16833333333333333)],[np.float64(-0.335)],[1],[0],[0],[1.0847654000099283],['Target'],28,0,28,0,41.26428990000568,,5,41.25497360000736,41.26428990000568,41.26428990000568,0.016112700002850033,42.27025010000216,42.34001030000218,[np.float64(0.16833333333333333)],[np.float64(-0.335)],[1],[0],[0],[1.0847654000099283],['Target'],PARTICIPANT 2,001,2025-09-30_13h26.40.633,visual search task,,2025.1.1,60.24542782182038,2025-09-30 13h30.35.466670 +0530,
29,0,29,[np.float64(0.2725)],[np.float64(-0.19833333333333333)],[1],[0],[0],[0.8172335000126623],['Target'],29,0,29,0,42.36585319999722,,5,42.356374800001504,42.36585319999722,42.36585319999722,0.016193499992368743,,43.1738575000054,[np.float64(0.2725)],[np.float64(-0.19833333333333333)],[1],[0],[0],[0.8172335000126623],['Target'],PARTICIPANT 2,001,2025-09-30_13h26.40.633,visual search task,,2025.1.1,60.24542782182038,2025-09-30 13h30.35.466670 +0530,
30,0,30,[np.float64(0.47833333333333333)],[np.float64(-0.3491666666666667)],[1],[0],[0],[0.9676524999958929],['Target'],30,0,30,0,43.19890889999806,,5,43.189780300002894,43.19890889999806,43.19890889999806,0.015761999995447695,,44.15772899999865,[np.float64(0.47833333333333333)],[np.float64(-0.3491666666666667)],[1],[0],[0],[0.9676524999958929],['Target'],PARTICIPANT 2,001,2025-09-30_13h26.40.633,visual search task,,2025.1.1,60.24542782182038,2025-09-30 13h30.35.466670 +0530,
31,0,31,"[np.float64(-0.18166666666666667), np.float64(-0.16)]","[np.float64(0.056666666666666664), np.float64(0.059166666666666666)]","[1, 1]","[0, 0]","[0, 0]","[1.053180600007181, 1.6029226999962702]","[None, 'Target']",31,0,31,0,44.18227649999608,,5,44.17301729999599,44.18227649999608,44.18227649999608,0.01508490000560414,45.19043430000602,45.77616229999694,"[np.float64(-0.18166666666666667), np.float64(-0.16)]","[np.float64(0.056666666666666664), np.float64(0.059166666666666666)]","[1, 1]","[0, 0]","[0, 0]","[1.053180600007181, 1.6029226999962702]","[None, 'Target']",PARTICIPANT 2,001,2025-09-30_13h26.40.633,visual search task,,2025.1.1,60.24542782182038,2025-09-30 13h30.35.466670 +0530,
32,0,32,[np.float64(0.385)],[np.float64(0.08833333333333333)],[1],[0],[0],[1.0753545000043232],['Target'],32,0,32,0,45.81594529999711,,10,45.80356980000215,45.81594529999711,45.81594529999711,0.027160500001627952,46.82534100000339,46.87913679999474,[np.float64(0.385)],[np.float64(0.08833333333333333)],[1],[0],[0],[1.0753545000043232],['Target'],PARTICIPANT 2,001,2025-09-30_13h26.40.633,visual search task,,2025.1.1,60.24542782182038,2025-09-30 13h30.35.466670 +0530,
33,0,33,[np.float64(-0.4091666666666667)],[np.float64(-0.3308333333333333)],[1],[0],[0],[1.25720249999722],['Target'],33,0,33,0,46.91911689999688,,10,46.905517299994244,46.91911689999688,46.91911689999688,0.026204199995845556,47.9265943000064,48.16292020000401,[np.float64(-0.4091666666666667)],[np.float64(-0.3308333333333333)],[1],[0],[0],[1.25720249999722],['Target'],PARTICIPANT 2,001,2025-09-30_13h26.40.633,visual search task,,2025.1.1,60.24542782182038,2025-09-30 13h30.35.466670 +0530,
34,0,34,"[np.float64(-0.2825), np.float64(-0.265)]","[np.float64(-0.23083333333333333), np.float64(-0.24)]","[1, 1]","[0, 0]","[0, 0]","[0.8872082000016235, 1.4368994999967981]","[None, 'Target']",34,0,34,0,48.186055600002874,,5,48.17663529999845,48.186055600002874,48.186055600002874,0.013542299988330342,49.19493300000613,49.61373900000763,"[np.float64(-0.2825), np.float64(-0.265)]","[np.float64(-0.23083333333333333), np.float64(-0.24)]","[1, 1]","[0, 0]","[0, 0]","[0.8872082000016235, 1.4368994999967981]","[None, 'Target']",PARTICIPANT 2,001,2025-09-30_13h26.40.633,visual search task,,2025.1.1,60.24542782182038,2025-09-30 13h30.35.466670 +0530,
35,0,35,[np.float64(0.4633333333333333)],[np.float64(0.005833333333333334)],[1],[0],[0],[1.1034866999980295],['Target'],35,0,35,0,49.63836890000675,,5,49.628994700004114,49.63836890000675,49.63836890000675,0.015031999995699152,50.64645620000374,50.732737199999974,[np.float64(0.4633333333333333)],[np.float64(0.005833333333333334)],[1],[0],[0],[1.1034866999980295],['Target'],PARTICIPANT 2,001,2025-09-30_13h26.40.633,visual search task,,2025.1.1,60.24542782182038,2025-09-30 13h30.35.466670 +0530,
36,0,36,[np.float64(-0.0008333333333333334)],[np.float64(0.13333333333333333)],[1],[0],[0],[1.840180800005328],['Target'],36,0,36,0,50.77556940000795,,10,50.76083060000383,50.77556940000795,50.77556940000795,0.027953400000114925,51.780484799994156,52.601222700002836,[np.float64(-0.0008333333333333334)],[np.float64(0.13333333333333333)],[1],[0],[0],[1.840180800005328],['Target'],PARTICIPANT 2,001,2025-09-30_13h26.40.633,visual search task,,2025.1.1,60.24542782182038,2025-09-30 13h30.35.466670 +0530,
37,0,37,[np.float64(0.0375)],[np.float64(0.25416666666666665)],[1],[0],[0],[0.9851612000056775],['Target'],37,0,37,0,52.62675759999547,,5,52.61680299999716,52.62675759999547,52.62675759999547,0.015348100001574494,,53.60221029999957,[np.float64(0.0375)],[np.float64(0.25416666666666665)],[1],[0],[0],[0.9851612000056775],['Target'],PARTICIPANT 2,001,2025-09-30_13h26.40.633,visual search task,,2025.1.1,60.24542782182038,2025-09-30 13h30.35.466670 +0530,
38,0,38,"[np.float64(-0.38666666666666666), np.float64(-0.39166666666666666)]","[np.float64(-0.4766666666666667), np.float64(-0.4766666666666667)]","[1, 1]","[0, 0]","[0, 0]","[1.16949429998931, 1.6531615999992937]","[None, 'Target']",38,0,38,0,53.62613940000301,,5,53.617048400003114,53.62613940000301,53.62613940000301,0.014660500004538335,54.63426590000745,55.27040049999778,"[np.float64(-0.38666666666666666), np.float64(-0.39166666666666666)]","[np.float64(-0.4766666666666667), np.float64(-0.4766666666666667)]","[1, 1]","[0, 0]","[0, 0]","[1.16949429998931, 1.6531615999992937]","[None, 'Target']",PARTICIPANT 2,001,2025-09-30_13h26.40.633,visual search task,,2025.1.1,60.24542782182038,2025-09-30 13h30.35.466670 +0530,
39,0,39,[np.float64(0.19083333333333333)],[np.float64(-0.195)],[1],[0],[0],[1.0054304999939632],['Target'],39,0,39,0,55.313277199995355,,10,55.29966439999407,55.313277199995355,55.313277199995355,0.029093100005411543,56.328853900005925,56.30527739999525,[np.float64(0.19083333333333333)],[np.float64(-0.195)],[1],[0],[0],[1.0054304999939632],['Target'],PARTICIPANT 2,001,2025-09-30_13h26.40.633,visual search task,,2025.1.1,60.24542782182038,2025-09-30 13h30.35.466670 +0530,
40,0,40,[np.float64(0.26416666666666666)],[np.float64(0.26166666666666666)],[1],[0],[0],[0.9194293000036851],['Target'],40,0,40,0,56.328853900005925,,5,56.3197194999957,56.328853900005925,56.328853900005925,0.014282299991464242,,57.23933510000643,[np.float64(0.26416666666666666)],[np.float64(0.26166666666666666)],[1],[0],[0],[0.9194293000036851],['Target'],PARTICIPANT 2,001,2025-09-30_13h26.40.633,visual search task,,2025.1.1,60.24542782182038,2025-09-30 13h30.35.466670 +0530,
41,0,41,[np.float64(0.11333333333333333)],[np.float64(-0.18666666666666668)],[1],[0],[0],[1.0387375999998767],['Target'],41,0,41,0,57.25986649999686,,5,57.25144010000804,57.25986649999686,57.25986649999686,0.011902099999133497,58.271415099996375,58.290362900006585,[np.float64(0.11333333333333333)],[np.float64(-0.18666666666666668)],[1],[0],[0],[1.0387375999998767],['Target'],PARTICIPANT 2,001,2025-09-30_13h26.40.633,visual search task,,2025.1.1,60.24542782182038,2025-09-30 13h30.35.466670 +0530,
42,0,42,[np.float64(-0.14583333333333334)],[np.float64(0.3975)],[1],[0],[0],[1.0678904999949737],['Target'],42,0,42,0,58.31610670000373,,5,58.3058858000004,58.31610670000373,58.31610670000373,0.015382799989311025,59.32284249999793,59.37405339999532,[np.float64(-0.14583333333333334)],[np.float64(0.3975)],[1],[0],[0],[1.0678904999949737],['Target'],PARTICIPANT 2,001,2025-09-30_13h26.40.633,visual search task,,2025.1.1,60.24542782182038,2025-09-30 13h30.35.466670 +0530,
43,0,43,[np.float64(0.37333333333333335)],[np.float64(0.2733333333333333)],[1],[0],[0],[1.1587949999957345],['Target'],43,0,43,0,59.41319069999736,,10,59.40122729999712,59.41319069999736,59.41319069999736,0.026978100009728223,60.42412540000805,60.560318799995,[np.float64(0.37333333333333335)],[np.float64(0.2733333333333333)],[1],[0],[0],[1.1587949999957345],['Target'],PARTICIPANT 2,001,2025-09-30_13h26.40.633,visual search task,,2025.1.1,60.24542782182038,2025-09-30 13h30.35.466670 +0530,
44,0,44,[np.float64(-0.22916666666666666)],[np.float64(0.041666666666666664)],[1],[0],[0],[0.8699654999945778],['Target'],44,0,44,0,60.58303130000422,,5,60.57393189999857,60.58303130000422,60.58303130000422,0.013386599996010773,,61.44409299999825,[np.float64(-0.22916666666666666)],[np.float64(0.041666666666666664)],[1],[0],[0],[0.8699654999945778],['Target'],PARTICIPANT 2,001,2025-09-30_13h26.40.633,visual search task,,2025.1.1,60.24542782182038,2025-09-30 13h30.35.466670 +0530,
45,0,45,[np.float64(0.40166666666666667)],[np.float64(0.2275)],[1],[0],[0],[0.9072716000082437],['Target'],45,0,45,0,61.48763030000555,,10,61.47180660000595,61.48763030000555,61.48763030000555,0.02757720000226982,,62.37929900000745,[np.float64(0.40166666666666667)],[np.float64(0.2275)],[1],[0],[0],[0.9072716000082437],['Target'],PARTICIPANT 2,001,2025-09-30_13h26.40.633,visual search task,,2025.1.1,60.24542782182038,2025-09-30 13h30.35.466670 +0530,
46,0,46,[np.float64(-0.125)],[np.float64(0.18416666666666667)],[1],[0],[0],[0.9390253000019584],['Target'],46,0,46,0,62.42146050000156,,10,62.40736399999878,62.42146050000156,62.42146050000156,0.02783639999688603,,63.346636799993576,[np.float64(-0.125)],[np.float64(0.18416666666666667)],[1],[0],[0],[0.9390253000019584],['Target'],PARTICIPANT 2,001,2025-09-30_13h26.40.633,visual search task,,2025.1.1,60.24542782182038,2025-09-30 13h30.35.466670 +0530,
47,0,47,[np.float64(-0.385)],[np.float64(-0.27166666666666667)],[1],[0],[0],[0.9074041999992914],['Target'],47,0,47,0,63.387047399999574,,10,63.37403789999371,63.387047399999574,63.387047399999574,0.02718309999909252,,64.28167280000343,[np.float64(-0.385)],[np.float64(-0.27166666666666667)],[1],[0],[0],[0.9074041999992914],['Target'],PARTICIPANT 2,001,2025-09-30_13h26.40.633,visual search task,,2025.1.1,60.24542782182038,2025-09-30 13h30.35.466670 +0530,
48,0,48,[np.float64(-0.16416666666666666)],[np.float64(-0.1925)],[1],[0],[0],[1.040530199999921],['Target'],48,0,48,0,64.3201451000059,,10,64.30745009999373,64.3201451000059,64.3201451000059,0.025551400001859292,65.33017640000617,65.34827990000485,[np.float64(-0.16416666666666666)],[np.float64(-0.1925)],[1],[0],[0],[1.040530199999921],['Target'],PARTICIPANT 2,001,2025-09-30_13h26.40.633,visual search task,,2025.1.1,60.24542782182038,2025-09-30 13h30.35.466670 +0530,
49,0,49,[np.float64(-0.22)],[np.float64(-0.018333333333333333)],[1],[0],[0],[0.7936562000104459],['Target'],49,0,49,0,65.38910220000253,,10,65.3745154000062,65.38910220000253,65.38910220000253,0.02600729999539908,,66.16846610000357,[np.float64(-0.22)],[np.float64(-0.018333333333333333)],[1],[0],[0],[0.7936562000104459],['Target'],PARTICIPANT 2,001,2025-09-30_13h26.40.633,visual search task,,2025.1.1,60.24542782182038,2025-09-30 13h30.35.466670 +0530,
50,0,50,[np.float64(0.16166666666666665)],[np.float64(-0.14583333333333334)],[1],[0],[0],[0.8685886000021128],['Target'],50,0,50,0,66.19223179999972,,5,66.18127430000459,66.19223179999972,66.19223179999972,0.012637699997867458,,67.05008529999759,[np.float64(0.16166666666666665)],[np.float64(-0.14583333333333334)],[1],[0],[0],[0.8685886000021128],['Target'],PARTICIPANT 2,001,2025-09-30_13h26.40.633,visual search task,,2025.1.1,60.24542782182038,2025-09-30 13h30.35.466670 +0530,
51,0,51,[np.float64(-0.12833333333333333)],[np.float64(0.22583333333333333)],[1],[0],[0],[1.3223789000039687],['Target'],51,0,51,0,67.09175809999579,,10,67.07824649999384,67.09175809999579,67.09175809999579,0.027988599991658702,68.09892489999766,68.40087060000224,[np.float64(-0.12833333333333333)],[np.float64(0.22583333333333333)],[1],[0],[0],[1.3223789000039687],['Target'],PARTICIPANT 2,001,2025-09-30_13h26.40.633,visual search task,,2025.1.1,60.24542782182038,2025-09-30 13h30.35.466670 +0530,
52,0,52,[np.float64(0.4)],[np.float64(-0.02)],[1],[0],[0],[1.1429200999991735],['Target'],52,0,52,0,68.43817170000693,,10,68.42642010000418,68.43817170000693,68.43817170000693,0.02534439999726601,69.45018549999804,69.56954739999492,[np.float64(0.4)],[np.float64(-0.02)],[1],[0],[0],[1.1429200999991735],['Target'],PARTICIPANT 2,001,2025-09-30_13h26.40.633,visual search task,,2025.1.1,60.24542782182038,2025-09-30 13h30.35.466670 +0530,
53,0,53,[np.float64(-0.028333333333333332)],[np.float64(-0.215)],[1],[0],[0],[0.8187098000053084],['Target'],53,0,53,0,69.59421049999946,,5,69.58495319999929,69.59421049999946,69.59421049999946,0.015185899988864549,,70.40388480000547,[np.float64(-0.028333333333333332)],[np.float64(-0.215)],[1],[0],[0],[0.8187098000053084],['Target'],PARTICIPANT 2,001,2025-09-30_13h26.40.633,visual search task,,2025.1.1,60.24542782182038,2025-09-30 13h30.35.466670 +0530,
54,0,54,[np.float64(0.425)],[np.float64(-0.25333333333333335)],[1],[0],[0],[0.9076561000110814],['Target'],54,0,54,0,70.44352790000266,,10,70.43111420000787,70.44352790000266,70.44352790000266,0.027097099999082275,,71.33898299999419,[np.float64(0.425)],[np.float64(-0.25333333333333335)],[1],[0],[0],[0.9076561000110814],['Target'],PARTICIPANT 2,001,2025-09-30_13h26.40.633,visual search task,,2025.1.1,60.24542782182038,2025-09-30 13h30.35.466670 +0530,
55,0,55,[np.float64(0.0125)],[np.float64(-0.2833333333333333)],[1],[0],[0],[0.8555878000042867],['Target'],55,0,55,0,71.37994640000397,,10,71.36701830000675,71.37994640000397,71.37994640000397,0.02788319998944644,,72.22280849999515,[np.float64(0.0125)],[np.float64(-0.2833333333333333)],[1],[0],[0],[0.8555878000042867],['Target'],PARTICIPANT 2,001,2025-09-30_13h26.40.633,visual search task,,2025.1.1,60.24542782182038,2025-09-30 13h30.35.466670 +0530,
56,0,56,"[np.float64(-0.1225), np.float64(-0.11583333333333333)]","[np.float64(0.25666666666666665), np.float64(0.2708333333333333)]","[1, 1]","[0, 0]","[0, 0]","[1.0188522999960696, 1.6022693999984767]","[None, 'Target']",56,0,56,0,72.2473389999941,,5,72.23834189999616,72.2473389999941,72.2473389999941,0.015354400005890056,73.25434990000213,73.8408047999983,"[np.float64(-0.1225), np.float64(-0.11583333333333333)]","[np.float64(0.25666666666666665), np.float64(0.2708333333333333)]","[1, 1]","[0, 0]","[0, 0]","[1.0188522999960696, 1.6022693999984767]","[None, 'Target']",PARTICIPANT 2,001,2025-09-30_13h26.40.633,visual search task,,2025.1.1,60.24542782182038,2025-09-30 13h30.35.466670 +0530,
57,0,57,[np.float64(-0.07083333333333333)],[np.float64(-0.18416666666666667)],[1],[0],[0],[1.1072241000074428],['Target'],57,0,57,0,73.8828027999989,,10,73.86854670000321,73.8828027999989,73.8828027999989,0.027557099994737655,74.89139649999561,74.97597400000086,[np.float64(-0.07083333333333333)],[np.float64(-0.18416666666666667)],[1],[0],[0],[1.1072241000074428],['Target'],PARTICIPANT 2,001,2025-09-30_13h26.40.633,visual search task,,2025.1.1,60.24542782182038,2025-09-30 13h30.35.466670 +0530,
58,0,58,[np.float64(-0.1775)],[np.float64(0.19083333333333333)],[1],[0],[0],[0.8551656000054209],['Target'],58,0,58,0,74.99756920000073,,5,74.98848230000294,74.99756920000073,74.99756920000073,0.012340600005700253,,75.84386520000407,[np.float64(-0.1775)],[np.float64(0.19083333333333333)],[1],[0],[0],[0.8551656000054209],['Target'],PARTICIPANT 2,001,2025-09-30_13h26.40.633,visual search task,,2025.1.1,60.24542782182038,2025-09-30 13h30.35.466670 +0530,
59,0,59,[np.float64(-0.19833333333333333)],[np.float64(-0.2816666666666667)],[1],[0],[0],[1.1038206000084756],['Target'],59,0,59,0,75.8879900000029,,10,75.87324129999615,75.8879900000029,75.8879900000029,0.029211200002464466,76.89183229999617,76.97729320000508,[np.float64(-0.19833333333333333)],[np.float64(-0.2816666666666667)],[1],[0],[0],[1.1038206000084756],['Target'],PARTICIPANT 2,001,2025-09-30_13h26.40.633,visual search task,,2025.1.1,60.24542782182038,2025-09-30 13h30.35.466670 +0530,
60,0,60,[np.float64(-0.225)],[np.float64(-0.20666666666666667)],[1],[0],[0],[0.6884717000066303],['Target'],60,0,60,0,77.0201381000079,,10,77.00642049999442,77.0201381000079,77.0201381000079,0.02896369999507442,,77.69514939999499,[np.float64(-0.225)],[np.float64(-0.20666666666666667)],[1],[0],[0],[0.6884717000066303],['Target'],PARTICIPANT 2,001,2025-09-30_13h26.40.633,visual search task,,2025.1.1,60.24542782182038,2025-09-30 13h30.35.466670 +0530,
61,0,61,"[np.float64(0.3858333333333333), np.float64(0.395)]","[np.float64(-0.445), np.float64(-0.44916666666666666)]","[1, 1]","[0, 0]","[0, 0]","[1.036025299996254, 1.536902399995597]","[None, 'Target']",61,0,61,0,77.71947320000618,,5,77.71010530000785,77.71947320000618,77.71947320000618,0.014716999998199753,78.72707999999693,79.24726469999587,"[np.float64(0.3858333333333333), np.float64(0.395)]","[np.float64(-0.445), np.float64(-0.44916666666666666)]","[1, 1]","[0, 0]","[0, 0]","[1.036025299996254, 1.536902399995597]","[None, 'Target']",PARTICIPANT 2,001,2025-09-30_13h26.40.633,visual search task,,2025.1.1,60.24542782182038,2025-09-30 13h30.35.466670 +0530,
62,0,62,"[np.float64(-0.4533333333333333), np.float64(-0.44333333333333336)]","[np.float64(0.47333333333333333), np.float64(0.4691666666666667)]","[1, 1]","[0, 0]","[0, 0]","[1.524181500004488, 2.0574764000048162]","[None, 'Target']",62,0,62,0,79.28659600000537,,10,79.27455270000792,79.28659600000537,79.28659600000537,0.027165399995283224,80.29528659999778,81.33229960000608,"[np.float64(-0.4533333333333333), np.float64(-0.44333333333333336)]","[np.float64(0.47333333333333333), np.float64(0.4691666666666667)]","[1, 1]","[0, 0]","[0, 0]","[1.524181500004488, 2.0574764000048162]","[None, 'Target']",PARTICIPANT 2,001,2025-09-30_13h26.40.633,visual search task,,2025.1.1,60.24542782182038,2025-09-30 13h30.35.466670 +0530,
63,0,63,[np.float64(0.375)],[np.float64(-0.049166666666666664)],[1],[0],[0],[1.4409290000039618],['Target'],63,0,63,0,81.37288690000423,,10,81.35954040000797,81.37288690000423,81.37288690000423,0.026996599990525283,82.38134150000405,82.80065710000054,[np.float64(0.375)],[np.float64(-0.049166666666666664)],[1],[0],[0],[1.4409290000039618],['Target'],PARTICIPANT 2,001,2025-09-30_13h26.40.633,visual search task,,2025.1.1,60.24542782182038,2025-09-30 13h30.35.466670 +0530,
64,0,64,[np.float64(-0.37583333333333335)],[np.float64(-0.08833333333333333)],[1],[0],[0],[1.2939095000037923],['Target'],64,0,64,0,82.8367442000017,,10,82.82513159999507,82.8367442000017,82.8367442000017,0.02432039999985136,83.84919520000403,84.11921210000583,[np.float64(-0.37583333333333335)],[np.float64(-0.08833333333333333)],[1],[0],[0],[1.2939095000037923],['Target'],PARTICIPANT 2,001,2025-09-30_13h26.40.633,visual search task,,2025.1.1,60.24542782182038,2025-09-30 13h30.35.466670 +0530,
65,0,65,[np.float64(0.3308333333333333)],[np.float64(-0.19833333333333333)],[1],[0],[0],[1.0219360000046436],['Target'],65,0,65,0,84.13955760000681,,5,84.13144070000271,84.13955760000681,84.13955760000681,0.012078300002031028,85.15057500000694,85.15359230000468,[np.float64(0.3308333333333333)],[np.float64(-0.19833333333333333)],[1],[0],[0],[1.0219360000046436],['Target'],PARTICIPANT 2,001,2025-09-30_13h26.40.633,visual search task,,2025.1.1,60.24542782182038,2025-09-30 13h30.35.466670 +0530,
66,0,66,[np.float64(-0.2975)],[np.float64(0.0325)],[1],[0],[0],[1.0018584000063129],['Target'],66,0,66,0,85.18060380000679,,5,85.16924240000662,85.18060380000679,85.18060380000679,0.015478599991183728,86.19676099999924,86.17131689999951,[np.float64(-0.2975)],[np.float64(0.0325)],[1],[0],[0],[1.0018584000063129],['Target'],PARTICIPANT 2,001,2025-09-30_13h26.40.633,visual search task,,2025.1.1,60.24542782182038,2025-09-30 13h30.35.466670 +0530,
67,0,67,[np.float64(-0.08)],[np.float64(0.1325)],[1],[0],[0],[1.085375299997395],['Target'],67,0,67,0,86.19676099999924,,5,86.1873329999944,86.19676099999924,86.19676099999924,0.015848700000788085,87.20320849999553,87.27308220000123,[np.float64(-0.08)],[np.float64(0.1325)],[1],[0],[0],[1.085375299997395],['Target'],PARTICIPANT 2,001,2025-09-30_13h26.40.633,visual search task,,2025.1.1,60.24542782182038,2025-09-30 13h30.35.466670 +0530,
68,0,68,"[np.float64(-0.19), np.float64(-0.17833333333333334)]","[np.float64(0.18), np.float64(0.19916666666666666)]","[1, 1]","[0, 0]","[0, 0]","[1.3737699000048451, 1.9884528999973554]","[None, 'Target']",68,0,68,0,87.31646240000555,,10,87.30267079999612,87.31646240000555,87.31646240000555,0.029397100006463006,88.32100609999907,89.29137120000087,"[np.float64(-0.19), np.float64(-0.17833333333333334)]","[np.float64(0.18), np.float64(0.19916666666666666)]","[1, 1]","[0, 0]","[0, 0]","[1.3737699000048451, 1.9884528999973554]","[None, 'Target']",PARTICIPANT 2,001,2025-09-30_13h26.40.633,visual search task,,2025.1.1,60.24542782182038,2025-09-30 13h30.35.466670 +0530,
69,0,69,[np.float64(0.3958333333333333)],[np.float64(0.3333333333333333)],[1],[0],[0],[1.7900647999922512],['Target'],69,0,69,0,89.33257620000222,,10,89.31908580000163,89.33257620000222,89.33257620000222,0.027471599998534657,90.34006390000286,91.10944450000534,[np.float64(0.3958333333333333)],[np.float64(0.3333333333333333)],[1],[0],[0],[1.7900647999922512],['Target'],PARTICIPANT 2,001,2025-09-30_13h26.40.633,visual search task,,2025.1.1,60.24542782182038,2025-09-30 13h30.35.466670 +0530,
70,0,70,[np.float64(0.2825)],[np.float64(-0.48083333333333333)],[0],[0],[1],[1.7057851999998093],['Target'],70,0,70,0,91.13503710000077,,5,91.12507340000593,91.13503710000077,91.13503710000077,0.015389299995149486,92.14210060000187,92.83109580000746,[np.float64(0.2825)],[np.float64(-0.48083333333333333)],[0],[0],[1],[1.7057851999998093],['Target'],PARTICIPANT 2,001,2025-09-30_13h26.40.633,visual search task,,2025.1.1,60.24542782182038,2025-09-30 13h30.35.466670 +0530,
71,0,71,[np.float64(0.2225)],[np.float64(0.24666666666666667)],[1],[0],[0],[1.486799799997243],['Target'],71,0,71,0,92.87351190000481,,10,92.85917229999905,92.87351190000481,92.87351190000481,0.027912599995033816,93.87731189999613,94.34626180000487,[np.float64(0.2225)],[np.float64(0.24666666666666667)],[1],[0],[0],[1.486799799997243],['Target'],PARTICIPANT 2,001,2025-09-30_13h26.40.633,visual search task,,2025.1.1,60.24542782182038,2025-09-30 13h30.35.466670 +0530,
72,0,72,[np.float64(-0.3641666666666667)],[np.float64(-0.475)],[1],[0],[0],[1.589558699997724],['Target'],72,0,72,0,94.36788429999433,,5,94.35974590000114,94.36788429999433,94.36788429999433,0.01322999999683816,95.37877640000079,95.94952080000076,[np.float64(-0.3641666666666667)],[np.float64(-0.475)],[1],[0],[0],[1.589558699997724],['Target'],PARTICIPANT 2,001,2025-09-30_13h26.40.633,visual search task,,2025.1.1,60.24542782182038,2025-09-30 13h30.35.466670 +0530,
73,0,73,[np.float64(-0.21666666666666667)],[np.float64(-0.085)],[1],[0],[0],[1.0388531999924453],['Target'],73,0,73,0,95.99068089999491,,10,95.97705380000116,95.99068089999491,95.99068089999491,0.027326700001140125,96.99697930000548,97.01610950000759,[np.float64(-0.21666666666666667)],[np.float64(-0.085)],[1],[0],[0],[1.0388531999924453],['Target'],PARTICIPANT 2,001,2025-09-30_13h26.40.633,visual search task,,2025.1.1,60.24542782182038,2025-09-30 13h30.35.466670 +0530,
74,0,74,[np.float64(0.2991666666666667)],[np.float64(-0.1525)],[1],[0],[0],[1.137731499999063],['Target'],74,0,74,0,97.04153970000334,,5,97.03101239999523,97.04153970000334,97.04153970000334,0.014686300011817366,98.04832940000051,98.16896009999618,[np.float64(0.2991666666666667)],[np.float64(-0.1525)],[1],[0],[0],[1.137731499999063],['Target'],PARTICIPANT 2,001,2025-09-30_13h26.40.633,visual search task,,2025.1.1,60.24542782182038,2025-09-30 13h30.35.466670 +0530,
75,0,75,[np.float64(0.4558333333333333)],[np.float64(0.1175)],[1],[0],[0],[0.9682934000011301],['Target'],75,0,75,0,98.19490729999961,,5,98.18480800000543,98.19490729999961,98.19490729999961,0.0156732000032207,,99.1534113999951,[np.float64(0.4558333333333333)],[np.float64(0.1175)],[1],[0],[0],[0.9682934000011301],['Target'],PARTICIPANT 2,001,2025-09-30_13h26.40.633,visual search task,,2025.1.1,60.24542782182038,2025-09-30 13h30.35.466670 +0530,
76,0,76,[np.float64(0.02)],[np.float64(0.1875)],[1],[0],[0],[1.169534400003613],['Target'],76,0,76,0,99.17861570000241,,5,99.16821639999398,99.17861570000241,99.17861570000241,0.014425799992750399,100.18395859999873,100.33795669999381,[np.float64(0.02)],[np.float64(0.1875)],[1],[0],[0],[1.169534400003613],['Target'],PARTICIPANT 2,001,2025-09-30_13h26.40.633,visual search task,,2025.1.1,60.24542782182038,2025-09-30 13h30.35.466670 +0530,
77,0,77,[np.float64(0.35833333333333334)],[np.float64(-0.0016666666666666668)],[1],[0],[0],[1.046945299996878],['Target'],77,0,77,0,100.39481450000312,,10,100.37297070000204,100.39481450000312,100.39481450000312,0.034861199994338676,101.40216040000087,101.42021280000336,[np.float64(0.35833333333333334)],[np.float64(-0.0016666666666666668)],[1],[0],[0],[1.046945299996878],['Target'],PARTICIPANT 2,001,2025-09-30_13h26.40.633,visual search task,,2025.1.1,60.24542782182038,2025-09-30 13h30.35.466670 +0530,
78,0,78,[np.float64(-0.4816666666666667)],[np.float64(-0.36083333333333334)],[1],[0],[0],[1.27295490000688],['Target'],78,0,78,0,101.44445100000303,,5,101.43453080000472,101.44445100000303,101.44445100000303,0.014072599995415658,102.45287189999362,102.70767899999919,[np.float64(-0.4816666666666667)],[np.float64(-0.36083333333333334)],[1],[0],[0],[1.27295490000688],['Target'],PARTICIPANT 2,001,2025-09-30_13h26.40.633,visual search task,,2025.1.1,60.24542782182038,2025-09-30 13h30.35.466670 +0530,
79,0,79,[np.float64(-0.4658333333333333)],[np.float64(-0.41583333333333333)],[1],[0],[0],[1.1545485999959055],['Target'],79,0,79,0,102.7481914999953,,10,102.73574299999746,102.7481914999953,102.7481914999953,0.027933799996390007,103.75508299999638,103.89050090000092,[np.float64(-0.4658333333333333)],[np.float64(-0.41583333333333333)],[1],[0],[0],[1.1545485999959055],['Target'],PARTICIPANT 2,001,2025-09-30_13h26.40.633,visual search task,,2025.1.1,60.24542782182038,2025-09-30 13h30.35.466670 +0530,
80,0,80,"[np.float64(0.11333333333333333), np.float64(0.09916666666666667)]","[np.float64(-0.03916666666666667), np.float64(-0.045)]","[1, 1]","[0, 0]","[0, 0]","[1.206596999996691, 1.7399355999950785]","[None, 'Target']",80,0,80,0,103.93249140000262,,10,103.91905910000787,103.93249140000262,103.93249140000262,0.028358299998217262,104.93909339999664,105.6592462999979,"[np.float64(0.11333333333333333), np.float64(0.09916666666666667)]","[np.float64(-0.03916666666666667), np.float64(-0.045)]","[1, 1]","[0, 0]","[0, 0]","[1.206596999996691, 1.7399355999950785]","[None, 'Target']",PARTICIPANT 2,001,2025-09-30_13h26.40.633,visual search task,,2025.1.1,60.24542782182038,2025-09-30 13h30.35.466670 +0530,
81,0,81,[np.float64(0.28833333333333333)],[np.float64(-0.28)],[1],[0],[0],[1.2098018000106094],['Target'],81,0,81,0,105.69721610000124,,10,105.68499449999945,105.69721610000124,105.69721610000124,0.025555600004736334,106.70780420000665,106.8950385000062,[np.float64(0.28833333333333333)],[np.float64(-0.28)],[1],[0],[0],[1.2098018000106094],['Target'],PARTICIPANT 2,001,2025-09-30_13h26.40.633,visual search task,,2025.1.1,60.24542782182038,2025-09-30 13h30.35.466670 +0530,
82,0,82,[np.float64(-0.425)],[np.float64(0.30833333333333335)],[1],[0],[0],[1.4884199000080116],['Target'],82,0,82,0,106.9384269000002,,10,106.92431200000283,106.9384269000002,106.9384269000002,0.029053799997200258,107.94257430000289,108.41297780000605,[np.float64(-0.425)],[np.float64(0.30833333333333335)],[1],[0],[0],[1.4884199000080116],['Target'],PARTICIPANT 2,001,2025-09-30_13h26.40.633,visual search task,,2025.1.1,60.24542782182038,2025-09-30 13h30.35.466670 +0530,
83,0,83,[np.float64(0.44666666666666666)],[np.float64(0.008333333333333333)],[1],[0],[0],[1.4563777000003029],['Target'],83,0,83,0,108.45309379999526,,10,108.4410729999945,108.45309379999526,108.45309379999526,0.027853699997649528,109.46111340000061,109.89776510000229,[np.float64(0.44666666666666666)],[np.float64(0.008333333333333333)],[1],[0],[0],[1.4563777000003029],['Target'],PARTICIPANT 2,001,2025-09-30_13h26.40.633,visual search task,,2025.1.1,60.24542782182038,2025-09-30 13h30.35.466670 +0530,
84,0,84,[np.float64(0.11083333333333334)],[np.float64(0.013333333333333334)],[1],[0],[0],[1.972966900008032],['Target'],84,0,84,0,109.93916510000417,,10,109.92597500000556,109.93916510000417,109.93916510000417,0.02789219999976922,110.94579949999752,111.8991679000028,[np.float64(0.11083333333333334)],[np.float64(0.013333333333333334)],[1],[0],[0],[1.972966900008032],['Target'],PARTICIPANT 2,001,2025-09-30_13h26.40.633,visual search task,,2025.1.1,60.24542782182038,2025-09-30 13h30.35.466670 +0530,
85,0,85,"[np.float64(-0.19916666666666666), np.float64(-0.19916666666666666)]","[np.float64(0.10333333333333333), np.float64(0.0925)]","[1, 1]","[0, 0]","[0, 0]","[1.2567351999896346, 1.7392314999888185]","[None, 'Target']",85,0,85,0,111.9411323999957,,10,111.92731709999498,111.9411323999957,111.9411323999957,0.0279692000040086,112.94806460000109,113.66681450000033,"[np.float64(-0.19916666666666666), np.float64(-0.19916666666666666)]","[np.float64(0.10333333333333333), np.float64(0.0925)]","[1, 1]","[0, 0]","[0, 0]","[1.2567351999896346, 1.7392314999888185]","[None, 'Target']",PARTICIPANT 2,001,2025-09-30_13h26.40.633,visual search task,,2025.1.1,60.24542782182038,2025-09-30 13h30.35.466670 +0530,
86,0,86,[np.float64(-0.48833333333333334)],[np.float64(0.32166666666666666)],[1],[0],[0],[1.0705629000003682],['Target'],86,0,86,0,113.69026040000608,,5,113.68181199999526,113.69026040000608,113.69026040000608,0.01472490000014659,114.69998360000318,114.7525886999938,[np.float64(-0.48833333333333334)],[np.float64(0.32166666666666666)],[1],[0],[0],[1.0705629000003682],['Target'],PARTICIPANT 2,001,2025-09-30_13h26.40.633,visual search task,,2025.1.1,60.24542782182038,2025-09-30 13h30.35.466670 +0530,
87,0,87,"[np.float64(0.21833333333333332), np.float64(0.18833333333333332)]","[np.float64(-0.21166666666666667), np.float64(-0.23166666666666666)]","[1, 1]","[0, 0]","[0, 0]","[1.8577471999888076, 2.590940900001442]","[None, 'Target']",87,0,87,0,114.7942752999952,,10,114.78162280000106,114.7942752999952,114.7942752999952,0.028810200004954822,115.80122379999375,117.37277570000151,"[np.float64(0.21833333333333332), np.float64(0.18833333333333332)]","[np.float64(-0.21166666666666667), np.float64(-0.23166666666666666)]","[1, 1]","[0, 0]","[0, 0]","[1.8577471999888076, 2.590940900001442]","[None, 'Target']",PARTICIPANT 2,001,2025-09-30_13h26.40.633,visual search task,,2025.1.1,60.24542782182038,2025-09-30 13h30.35.466670 +0530,
88,0,88,[np.float64(0.35833333333333334)],[np.float64(0.14)],[1],[0],[0],[1.1844796999939717],['Target'],88,0,88,0,117.39959600000293,,5,117.38901850000548,117.39959600000293,117.39959600000293,0.0159511000092607,118.40396480000345,118.57373780000489,[np.float64(0.35833333333333334)],[np.float64(0.14)],[1],[0],[0],[1.1844796999939717],['Target'],PARTICIPANT 2,001,2025-09-30_13h26.40.633,visual search task,,2025.1.1,60.24542782182038,2025-09-30 13h30.35.466670 +0530,
89,0,89,[np.float64(0.0925)],[np.float64(-0.2375)],[1],[0],[0],[1.0202742999972543],['Target'],89,0,89,0,118.59945239999797,,5,118.58851230000437,118.59945239999797,118.59945239999797,0.014615399995818734,119.60539589999826,119.60900330000732,[np.float64(0.0925)],[np.float64(-0.2375)],[1],[0],[0],[1.0202742999972543],['Target'],PARTICIPANT 2,001,2025-09-30_13h26.40.633,visual search task,,2025.1.1,60.24542782182038,2025-09-30 13h30.35.466670 +0530,
90,0,90,[np.float64(-0.024166666666666666)],[np.float64(-0.1775)],[1],[0],[0],[1.3020397999935085],['Target'],90,0,90,0,119.7801582999964,,5,119.62408130000404,119.7801582999964,119.7801582999964,0.014948600000934675,120.78987769999367,120.92635330000485,[np.float64(-0.024166666666666666)],[np.float64(-0.1775)],[1],[0],[0],[1.3020397999935085],['Target'],PARTICIPANT 2,001,2025-09-30_13h26.40.633,visual search task,,2025.1.1,60.24542782182038,2025-09-30 13h30.35.466670 +0530,
91,0,91,[np.float64(0.17416666666666666)],[np.float64(-0.3825)],[1],[0],[0],[1.0540875000006054],['Target'],91,0,91,0,120.9696391000034,,10,120.95542840000417,120.9696391000034,120.9696391000034,0.028952699998626485,121.97443940000085,122.00979929999448,[np.float64(0.17416666666666666)],[np.float64(-0.3825)],[1],[0],[0],[1.0540875000006054],['Target'],PARTICIPANT 2,001,2025-09-30_13h26.40.633,visual search task,,2025.1.1,60.24542782182038,2025-09-30 13h30.35.466670 +0530,
92,0,92,[np.float64(0.0325)],[np.float64(-0.36083333333333334)],[1],[0],[0],[1.2908019999886164],['Target'],92,0,92,0,122.05229560000589,,10,122.03906730000745,122.05229560000589,122.05229560000589,0.029022800008533522,123.059679900005,123.33008440000413,[np.float64(0.0325)],[np.float64(-0.36083333333333334)],[1],[0],[0],[1.2908019999886164],['Target'],PARTICIPANT 2,001,2025-09-30_13h26.40.633,visual search task,,2025.1.1,60.24542782182038,2025-09-30 13h30.35.466670 +0530,
93,0,93,[np.float64(-0.20833333333333334)],[np.float64(0.1675)],[1],[0],[0],[1.3185585000028368],['Target'],93,0,93,0,123.35508019999543,,5,123.34568470000522,123.35508019999543,123.35508019999543,0.015352000002167188,124.36059120000573,124.6644563000009,[np.float64(-0.20833333333333334)],[np.float64(0.1675)],[1],[0],[0],[1.3185585000028368],['Target'],PARTICIPANT 2,001,2025-09-30_13h26.40.633,visual search task,,2025.1.1,60.24542782182038,2025-09-30 13h30.35.466670 +0530,
94,0,94,[np.float64(0.4091666666666667)],[np.float64(-0.16666666666666666)],[1],[0],[0],[1.2182144000107655],['Target'],94,0,94,0,124.69060709999758,,5,124.68009530000563,124.69060709999758,124.69060709999758,0.01545389999228064,125.69527510000626,125.89855329999409,[np.float64(0.4091666666666667)],[np.float64(-0.16666666666666666)],[1],[0],[0],[1.2182144000107655],['Target'],PARTICIPANT 2,001,2025-09-30_13h26.40.633,visual search task,,2025.1.1,60.24542782182038,2025-09-30 13h30.35.466670 +0530,
95,0,95,[np.float64(-0.10416666666666667)],[np.float64(0.28583333333333333)],[1],[0],[0],[1.185064900011639],['Target'],95,0,95,0,125.92481650000263,,5,125.91383780000615,125.92481650000263,125.92481650000263,0.015115000001969747,126.93002870000782,127.09914570000547,[np.float64(-0.10416666666666667)],[np.float64(0.28583333333333333)],[1],[0],[0],[1.185064900011639],['Target'],PARTICIPANT 2,001,2025-09-30_13h26.40.633,visual search task,,2025.1.1,60.24542782182038,2025-09-30 13h30.35.466670 +0530,
96,0,96,[np.float64(0.3)],[np.float64(0.4125)],[1],[0],[0],[0.9540873999940231],['Target'],96,0,96,0,127.12469140000758,,5,127.11442690000695,127.12469140000758,127.12469140000758,0.01514060000772588,,128.06876809999812,[np.float64(0.3)],[np.float64(0.4125)],[1],[0],[0],[0.9540873999940231],['Target'],PARTICIPANT 2,001,2025-09-30_13h26.40.633,visual search task,,2025.1.1,60.24542782182038,2025-09-30 13h30.35.466670 +0530,
97,0,97,[np.float64(0.44333333333333336)],[np.float64(-0.4125)],[1],[0],[0],[1.5896329999959562],['Target'],97,0,97,0,128.10991980000108,,10,128.0961083000002,128.10991980000108,128.10991980000108,0.02721729999757372,129.1169549000042,129.68598270000075,[np.float64(0.44333333333333336)],[np.float64(-0.4125)],[1],[0],[0],[1.5896329999959562],['Target'],PARTICIPANT 2,001,2025-09-30_13h26.40.633,visual search task,,2025.1.1,60.24542782182038,2025-09-30 13h30.35.466670 +0530,
98,0,98,[np.float64(0.46416666666666667)],[np.float64(-0.1575)],[1],[0],[0],[1.1385210000007646],['Target'],98,0,98,0,129.72992120000708,,10,129.7154210000008,129.72992120000708,129.72992120000708,0.029290999998920597,130.73484129999997,130.85434740000346,[np.float64(0.46416666666666667)],[np.float64(-0.1575)],[1],[0],[0],[1.1385210000007646],['Target'],PARTICIPANT 2,001,2025-09-30_13h26.40.633,visual search task,,2025.1.1,60.24542782182038,2025-09-30 13h30.35.466670 +0530,
99,0,99,"[np.float64(-0.4525), np.float64(-0.4658333333333333)]","[np.float64(0.12), np.float64(0.11416666666666667)]","[1, 1]","[0, 0]","[0, 0]","[1.636265299996012, 2.153941600001417]","[None, 'Target']",99,0,99,0,130.8783865000005,,5,130.86942430000636,130.8783865000005,130.8783865000005,0.014737899997271597,131.88550010000472,133.02357639999536,"[np.float64(-0.4525), np.float64(-0.4658333333333333)]","[np.float64(0.12), np.float64(0.11416666666666667)]","[1, 1]","[0, 0]","[0, 0]","[1.636265299996012, 2.153941600001417]","[None, 'Target']",PARTICIPANT 2,001,2025-09-30_13h26.40.633,visual search task,,2025.1.1,60.24542782182038,2025-09-30 13h30.35.466670 +0530,
100,0,100,[np.float64(0.30833333333333335)],[np.float64(0.2625)],[1],[0],[0],[1.3040187000005972],['Target'],100,0,100,0,133.06585909999558,,10,133.0530332000053,133.06585909999558,133.06585909999558,0.029243500001030043,134.07161369999812,134.3573228000023,[np.float64(0.30833333333333335)],[np.float64(0.2625)],[1],[0],[0],[1.3040187000005972],['Target'],PARTICIPANT 2,001,2025-09-30_13h26.40.633,visual search task,,2025.1.1,60.24542782182038,2025-09-30 13h30.35.466670 +0530,
101,0,101,[np.float64(-0.31166666666666665)],[np.float64(0.27166666666666667)],[1],[0],[0],[1.4555362999963108],['Target'],101,0,101,0,134.39733049999631,,10,134.3855154000048,134.39733049999631,134.39733049999631,0.027975400007562712,135.40725839999504,135.84125579999818,[np.float64(-0.31166666666666665)],[np.float64(0.27166666666666667)],[1],[0],[0],[1.4555362999963108],['Target'],PARTICIPANT 2,001,2025-09-30_13h26.40.633,visual search task,,2025.1.1,60.24542782182038,2025-09-30 13h30.35.466670 +0530,
102,0,102,"[np.float64(0.38083333333333336), np.float64(0.38416666666666666)]","[np.float64(-0.44666666666666666), np.float64(-0.46416666666666667)]","[1, 0]","[0, 0]","[0, 1]","[1.5386628999985987, 2.356110799999442]","[None, 'Target']",102,0,102,0,135.86398920000647,,5,135.85609660000773,135.86398920000647,135.86398920000647,0.014630400008172728,136.87414250000438,138.21239489999425,"[np.float64(0.38083333333333336), np.float64(0.38416666666666666)]","[np.float64(-0.44666666666666666), np.float64(-0.46416666666666667)]","[1, 0]","[0, 0]","[0, 1]","[1.5386628999985987, 2.356110799999442]","[None, 'Target']",PARTICIPANT 2,001,2025-09-30_13h26.40.633,visual search task,,2025.1.1,60.24542782182038,2025-09-30 13h30.35.466670 +0530,
103,0,103,[np.float64(-0.004166666666666667)],[np.float64(0.18583333333333332)],[1],[0],[0],[1.3732862000033492],['Target'],103,0,103,0,138.2540888000076,,10,138.24079470000288,138.2540888000076,138.2540888000076,0.0281818000075873,139.2601125999936,139.61431649999577,[np.float64(-0.004166666666666667)],[np.float64(0.18583333333333332)],[1],[0],[0],[1.3732862000033492],['Target'],PARTICIPANT 2,001,2025-09-30_13h26.40.633,visual search task,,2025.1.1,60.24542782182038,2025-09-30 13h30.35.466670 +0530,
104,0,104,[np.float64(0.20333333333333334)],[np.float64(-0.095)],[1],[0],[0],[1.476722499995958],['Target'],104,0,104,0,139.65288419999706,,10,139.639625900003,139.65288419999706,139.65288419999706,0.025113499999861233,140.6620641000045,141.11660370000754,[np.float64(0.20333333333333334)],[np.float64(-0.095)],[1],[0],[0],[1.476722499995958],['Target'],PARTICIPANT 2,001,2025-09-30_13h26.40.633,visual search task,,2025.1.1,60.24542782182038,2025-09-30 13h30.35.466670 +0530,
105,0,105,[np.float64(0.16)],[np.float64(0.4008333333333333)],[1],[0],[0],[1.3397365999990143],['Target'],105,0,105,0,141.15907150000567,,10,141.14434410000104,141.15907150000567,141.15907150000567,0.027585400006501004,142.1634999999951,142.48449630000687,[np.float64(0.16)],[np.float64(0.4008333333333333)],[1],[0],[0],[1.3397365999990143],['Target'],PARTICIPANT 2,001,2025-09-30_13h26.40.633,visual search task,,2025.1.1,60.24542782182038,2025-09-30 13h30.35.466670 +0530,
106,0,106,[np.float64(-0.2025)],[np.float64(0.11833333333333333)],[1],[0],[0],[1.0862743000034243],['Target'],106,0,106,0,142.50891370000318,,5,142.4981170999963,142.50891370000318,142.50891370000318,0.013320099998963997,143.5143032000051,143.58465790000628,[np.float64(-0.2025)],[np.float64(0.11833333333333333)],[1],[0],[0],[1.0862743000034243],['Target'],PARTICIPANT 2,001,2025-09-30_13h26.40.633,visual search task,,2025.1.1,60.24542782182038,2025-09-30 13h30.35.466670 +0530,
107,0,107,[np.float64(0.24916666666666668)],[np.float64(-0.13)],[1],[0],[0],[1.2029635999933816],['Target'],107,0,107,0,143.6065915000072,,5,143.59794609999517,143.6065915000072,143.6065915000072,0.013071100009256043,144.61683240000275,144.80109330000414,[np.float64(0.24916666666666668)],[np.float64(-0.13)],[1],[0],[0],[1.2029635999933816],['Target'],PARTICIPANT 2,001,2025-09-30_13h26.40.633,visual search task,,2025.1.1,60.24542782182038,2025-09-30 13h30.35.466670 +0530,
108,0,108,"[np.float64(0.07416666666666667), np.float64(0.09333333333333334)]","[np.float64(-0.13333333333333333), np.float64(-0.14416666666666667)]","[1, 1]","[0, 0]","[0, 0]","[0.9975189999968279, 1.5477149000071222]","[None, 'Target']",108,0,108,0,144.83469000000332,,10,144.8234972000064,144.83469000000332,144.83469000000332,0.022278800010099076,145.83438220000244,146.37140410000575,"[np.float64(0.07416666666666667), np.float64(0.09333333333333334)]","[np.float64(-0.13333333333333333), np.float64(-0.14416666666666667)]","[1, 1]","[0, 0]","[0, 0]","[0.9975189999968279, 1.5477149000071222]","[None, 'Target']",PARTICIPANT 2,001,2025-09-30_13h26.40.633,visual search task,,2025.1.1,60.24542782182038,2025-09-30 13h30.35.466670 +0530,
109,0,109,[np.float64(-0.27)],[np.float64(0.39416666666666667)],[1],[0],[0],[1.2692047000018647],['Target'],109,0,109,0,146.3963642000017,,5,146.38696319999872,146.3963642000017,146.3963642000017,0.015245700007653795,147.40284009999596,147.6564098999952,[np.float64(-0.27)],[np.float64(0.39416666666666667)],[1],[0],[0],[1.2692047000018647],['Target'],PARTICIPANT 2,001,2025-09-30_13h26.40.633,visual search task,,2025.1.1,60.24542782182038,2025-09-30 13h30.35.466670 +0530,
110,0,110,[np.float64(-0.45666666666666667)],[np.float64(-0.11833333333333333)],[1],[0],[0],[1.1015127999999095],['Target'],110,0,110,0,147.6820227999997,,5,147.67158070000005,147.6820227999997,147.6820227999997,0.014981800006353296,148.68714320000436,148.77342519999365,[np.float64(-0.45666666666666667)],[np.float64(-0.11833333333333333)],[1],[0],[0],[1.1015127999999095],['Target'],PARTICIPANT 2,001,2025-09-30_13h26.40.633,visual search task,,2025.1.1,60.24542782182038,2025-09-30 13h30.35.466670 +0530,
111,0,111,[np.float64(-0.31166666666666665)],[np.float64(-0.24083333333333334)],[1],[0],[0],[0.9193984000012279],['Target'],111,0,111,0,148.79862549999962,,5,148.7883606999967,148.79862549999962,148.79862549999962,0.014415000012377277,,149.70801650000794,[np.float64(-0.31166666666666665)],[np.float64(-0.24083333333333334)],[1],[0],[0],[0.9193984000012279],['Target'],PARTICIPANT 2,001,2025-09-30_13h26.40.633,visual search task,,2025.1.1,60.24542782182038,2025-09-30 13h30.35.466670 +0530,
112,0,112,[np.float64(0.49083333333333334)],[np.float64(0.3566666666666667)],[1],[0],[0],[1.484708000003593],['Target'],112,0,112,0,149.7348018000048,,5,149.72420820000116,149.7348018000048,149.7348018000048,0.01602439999987837,150.74011329999485,151.20916209999996,[np.float64(0.49083333333333334)],[np.float64(0.3566666666666667)],[1],[0],[0],[1.484708000003593],['Target'],PARTICIPANT 2,001,2025-09-30_13h26.40.633,visual search task,,2025.1.1,60.24542782182038,2025-09-30 13h30.35.466670 +0530,
113,0,113,[np.float64(0.025833333333333333)],[np.float64(0.23583333333333334)],[1],[0],[0],[1.0870415999961551],['Target'],113,0,113,0,151.23348480000277,,5,151.22420870000497,151.23348480000277,151.23348480000277,0.014859200004138984,152.2413901999971,152.3114876000036,[np.float64(0.025833333333333333)],[np.float64(0.23583333333333334)],[1],[0],[0],[1.0870415999961551],['Target'],PARTICIPANT 2,001,2025-09-30_13h26.40.633,visual search task,,2025.1.1,60.24542782182038,2025-09-30 13h30.35.466670 +0530,
114,0,114,[np.float64(0.4608333333333333)],[np.float64(0.3016666666666667)],[1],[0],[0],[1.0895421000022907],['Target'],114,0,114,0,152.33598889999848,,5,152.32570780000242,152.33598889999848,152.33598889999848,0.014036399996257387,153.34289709999575,153.41560520000348,[np.float64(0.4608333333333333)],[np.float64(0.3016666666666667)],[1],[0],[0],[1.0895421000022907],['Target'],PARTICIPANT 2,001,2025-09-30_13h26.40.633,visual search task,,2025.1.1,60.24542782182038,2025-09-30 13h30.35.466670 +0530,
115,0,115,[np.float64(-0.49083333333333334)],[np.float64(0.3625)],[1],[0],[0],[1.3955254999891622],['Target'],115,0,115,0,153.44816519999586,,5,153.43525199999567,153.44816519999586,153.44816519999586,0.01942510000662878,154.46177350000653,154.8310949000006,[np.float64(-0.49083333333333334)],[np.float64(0.3625)],[1],[0],[0],[1.3955254999891622],['Target'],PARTICIPANT 2,001,2025-09-30_13h26.40.633,visual search task,,2025.1.1,60.24542782182038,2025-09-30 13h30.35.466670 +0530,
116,0,116,[np.float64(-0.48)],[np.float64(0.3591666666666667)],[1],[0],[0],[0.5401364999997895],['Target'],116,0,116,0,154.87057790000108,,10,154.8579494000005,154.87057790000108,154.87057790000108,0.026734400002169423,,155.39829749999626,[np.float64(-0.48)],[np.float64(0.3591666666666667)],[1],[0],[0],[0.5401364999997895],['Target'],PARTICIPANT 2,001,2025-09-30_13h26.40.633,visual search task,,2025.1.1,60.24542782182038,2025-09-30 13h30.35.466670 +0530,
117,0,117,[np.float64(0.2841666666666667)],[np.float64(-0.023333333333333334)],[1],[0],[0],[1.1735234999941895],['Target'],117,0,117,0,155.4380433000042,,10,155.4245762000064,155.4380433000042,155.4380433000042,0.026066899998113513,156.44561360000807,156.59832720000122,[np.float64(0.2841666666666667)],[np.float64(-0.023333333333333334)],[1],[0],[0],[1.1735234999941895],['Target'],PARTICIPANT 2,001,2025-09-30_13h26.40.633,visual search task,,2025.1.1,60.24542782182038,2025-09-30 13h30.35.466670 +0530,
118,0,118,[np.float64(0.14833333333333334)],[np.float64(0.37)],[1],[0],[0],[1.0565958999941358],['Target'],118,0,118,0,156.63843920000363,,10,156.62608719999844,156.63843920000363,156.63843920000363,0.027540499999304302,157.6474625999981,157.68288100000063,[np.float64(0.14833333333333334)],[np.float64(0.37)],[1],[0],[0],[1.0565958999941358],['Target'],PARTICIPANT 2,001,2025-09-30_13h26.40.633,visual search task,,2025.1.1,60.24542782182038,2025-09-30 13h30.35.466670 +0530,
119,0,119,[np.float64(0.425)],[np.float64(0.09166666666666666)],[1],[0],[0],[1.0950018000003183],['Target'],119,0,119,0,157.71752849999757,,10,157.70564390000072,157.71752849999757,157.71752849999757,0.022618100003455766,158.73165390000213,158.80083419999573,[np.float64(0.425)],[np.float64(0.09166666666666666)],[1],[0],[0],[1.0950018000003183],['Target'],PARTICIPANT 2,001,2025-09-30_13h26.40.633,visual search task,,2025.1.1,60.24542782182038,2025-09-30 13h30.35.466670 +0530,
120,0,120,[np.float64(0.1925)],[np.float64(0.48)],[1],[0],[0],[1.9882677999994485],['Target'],120,0,120,0,158.84405240000342,,10,158.83196160000807,158.84405240000342,158.84405240000342,0.03091600000334438,159.84878580000077,160.82045149999612,[np.float64(0.1925)],[np.float64(0.48)],[1],[0],[0],[1.9882677999994485],['Target'],PARTICIPANT 2,001,2025-09-30_13h26.40.633,visual search task,,2025.1.1,60.24542782182038,2025-09-30 13h30.35.466670 +0530,
121,0,121,"[np.float64(0.38416666666666666), np.float64(0.385), np.float64(0.4175)]","[np.float64(0.19166666666666668), np.float64(0.19166666666666668), np.float64(0.21166666666666667)]","[1, 1, 1]","[0, 0, 0]","[0, 0, 0]","[1.124824800004717, 1.5755958000081591, 2.2256005000090227]","[None, None, 'Target']",121,0,121,0,160.86281770000642,,10,160.84636260000116,160.86281770000642,160.86281770000642,0.025746400002390146,161.86851309999474,163.0721959000075,"[np.float64(0.38416666666666666), np.float64(0.385), np.float64(0.4175)]","[np.float64(0.19166666666666668), np.float64(0.19166666666666668), np.float64(0.21166666666666667)]","[1, 1, 1]","[0, 0, 0]","[0, 0, 0]","[1.124824800004717, 1.5755958000081591, 2.2256005000090227]","[None, None, 'Target']",PARTICIPANT 2,001,2025-09-30_13h26.40.633,visual search task,,2025.1.1,60.24542782182038,2025-09-30 13h30.35.466670 +0530,
122,0,122,[np.float64(0.4708333333333333)],[np.float64(-0.006666666666666667)],[1],[0],[0],[1.4088398000021698],['Target'],122,0,122,0,163.11331030000292,,10,163.09872320000432,163.11331030000292,163.11331030000292,0.02624419999483507,164.12144109999645,164.5077861000027,[np.float64(0.4708333333333333)],[np.float64(-0.006666666666666667)],[1],[0],[0],[1.4088398000021698],['Target'],PARTICIPANT 2,001,2025-09-30_13h26.40.633,visual search task,,2025.1.1,60.24542782182038,2025-09-30 13h30.35.466670 +0530,
123,0,123,"[np.float64(0.1275), np.float64(0.12666666666666668), np.float64(0.12666666666666668), np.float64(0.11333333333333333)]","[np.float64(-0.31166666666666665), np.float64(-0.31083333333333335), np.float64(-0.31083333333333335), np.float64(-0.30333333333333334)]","[1, 1, 1, 1]","[0, 0, 0, 0]","[0, 0, 0, 0]","[1.3057059999991907, 1.7390178000059677, 2.1568793000042206, 2.590582300006645]","[None, None, None, 'Target']",123,0,123,0,164.5506319999986,,10,164.53623500000685,164.5506319999986,164.5506319999986,0.028243200009455904,165.5554259000055,167.12706420000177,"[np.float64(0.1275), np.float64(0.12666666666666668), np.float64(0.12666666666666668), np.float64(0.11333333333333333)]","[np.float64(-0.31166666666666665), np.float64(-0.31083333333333335), np.float64(-0.31083333333333335), np.float64(-0.30333333333333334)]","[1, 1, 1, 1]","[0, 0, 0, 0]","[0, 0, 0, 0]","[1.3057059999991907, 1.7390178000059677, 2.1568793000042206, 2.590582300006645]","[None, None, None, 'Target']",PARTICIPANT 2,001,2025-09-30_13h26.40.633,visual search task,,2025.1.1,60.24542782182038,2025-09-30 13h30.35.466670 +0530,
124,0,124,"[np.float64(-0.009166666666666667), np.float64(0.011666666666666667)]","[np.float64(0.44583333333333336), np.float64(0.43416666666666665)]","[1, 1]","[0, 0]","[0, 0]","[1.4761934999987716, 3.4097604999988107]","[None, 'Target']",124,0,124,0,167.16683089999424,,10,167.15426019999722,167.16683089999424,167.16683089999424,0.02688089999719523,168.1762044000061,170.56422400000156,"[np.float64(-0.009166666666666667), np.float64(0.011666666666666667)]","[np.float64(0.44583333333333336), np.float64(0.43416666666666665)]","[1, 1]","[0, 0]","[0, 0]","[1.4761934999987716, 3.4097604999988107]","[None, 'Target']",PARTICIPANT 2,001,2025-09-30_13h26.40.633,visual search task,,2025.1.1,60.24542782182038,2025-09-30 13h30.35.466670 +0530,
125,0,125,[np.float64(0.48333333333333334)],[np.float64(-0.22583333333333333)],[1],[0],[0],[1.3388520000007702],['Target'],125,0,125,0,170.5866284000076,,5,170.57757239999773,170.5866284000076,170.5866284000076,0.01313079999818001,171.5959498000011,171.9166350000014,[np.float64(0.48333333333333334)],[np.float64(-0.22583333333333333)],[1],[0],[0],[1.3388520000007702],['Target'],PARTICIPANT 2,001,2025-09-30_13h26.40.633,visual search task,,2025.1.1,60.24542782182038,2025-09-30 13h30.35.466670 +0530,
126,0,126,[np.float64(0.36833333333333335)],[np.float64(-0.46)],[1],[0],[0],[1.490508900009445],['Target'],126,0,126,0,171.95793279999634,,10,171.94435049999447,171.95793279999634,171.95793279999634,0.02753649999795016,172.96365890000015,173.43507839999802,[np.float64(0.36833333333333335)],[np.float64(-0.46)],[1],[0],[0],[1.490508900009445],['Target'],PARTICIPANT 2,001,2025-09-30_13h26.40.633,visual search task,,2025.1.1,60.24542782182038,2025-09-30 13h30.35.466670 +0530,
127,0,127,[np.float64(0.18416666666666667)],[np.float64(0.37416666666666665)],[1],[0],[0],[1.0686679000064032],['Target'],127,0,127,0,173.46094479999738,,5,173.45070020000276,173.46094479999738,173.46094479999738,0.015424600002006628,174.4655819000036,174.51962819999608,[np.float64(0.18416666666666667)],[np.float64(0.37416666666666665)],[1],[0],[0],[1.0686679000064032],['Target'],PARTICIPANT 2,001,2025-09-30_13h26.40.633,visual search task,,2025.1.1,60.24542782182038,2025-09-30 13h30.35.466670 +0530,
128,0,128,[np.float64(-0.4083333333333333)],[np.float64(0.3575)],[1],[0],[0],[1.0710336000047391],['Target'],128,0,128,0,174.56099569999787,,10,174.548343500006,174.56099569999787,174.56099569999787,0.028531500007375143,175.56715079999412,175.61957450000045,[np.float64(-0.4083333333333333)],[np.float64(0.3575)],[1],[0],[0],[1.0710336000047391],['Target'],PARTICIPANT 2,001,2025-09-30_13h26.40.633,visual search task,,2025.1.1,60.24542782182038,2025-09-30 13h30.35.466670 +0530,
129,0,129,[np.float64(0.275)],[np.float64(-0.18583333333333332)],[1],[0],[0],[1.353738899997552],['Target'],129,0,129,0,175.64465570000175,,5,175.6346324000042,175.64465570000175,175.64465570000175,0.014893400002620183,176.65152650000528,176.98858560000372,[np.float64(0.275)],[np.float64(-0.18583333333333332)],[1],[0],[0],[1.353738899997552],['Target'],PARTICIPANT 2,001,2025-09-30_13h26.40.633,visual search task,,2025.1.1,60.24542782182038,2025-09-30 13h30.35.466670 +0530,
130,0,130,[np.float64(0.1425)],[np.float64(0.11166666666666666)],[1],[0],[0],[2.0399928000115324],['Target'],130,0,130,0,177.0288705999992,,10,177.01592320000054,177.0288705999992,177.0288705999992,0.027178999996976927,178.0362363000022,179.05621779999638,[np.float64(0.1425)],[np.float64(0.11166666666666666)],[1],[0],[0],[2.0399928000115324],['Target'],PARTICIPANT 2,001,2025-09-30_13h26.40.633,visual search task,,2025.1.1,60.24542782182038,2025-09-30 13h30.35.466670 +0530,
131,0,131,[np.float64(0.4266666666666667)],[np.float64(-0.05)],[1],[0],[0],[1.0233556000021053],['Target'],131,0,131,0,179.0990252000047,,10,179.0848604000057,179.0990252000047,179.0990252000047,0.02837270000600256,180.10520669999823,180.10846790000505,[np.float64(0.4266666666666667)],[np.float64(-0.05)],[1],[0],[0],[1.0233556000021053],['Target'],PARTICIPANT 2,001,2025-09-30_13h26.40.633,visual search task,,2025.1.1,60.24542782182038,2025-09-30 13h30.35.466670 +0530,
132,0,132,[np.float64(0.365)],[np.float64(-0.02666666666666667)],[1],[0],[0],[0.8358388999913586],['Target'],132,0,132,0,180.13337179999507,,5,180.12294109999493,180.13337179999507,180.13337179999507,0.01424419999239035,,180.95902650000062,[np.float64(0.365)],[np.float64(-0.02666666666666667)],[1],[0],[0],[0.8358388999913586],['Target'],PARTICIPANT 2,001,2025-09-30_13h26.40.633,visual search task,,2025.1.1,60.24542782182038,2025-09-30 13h30.35.466670 +0530,
133,0,133,[np.float64(-0.2633333333333333)],[np.float64(-0.0725)],[1],[0],[0],[1.006870600002003],['Target'],133,0,133,0,180.99876970000332,,10,180.98605629999656,180.99876970000332,180.99876970000332,0.02685619999829214,182.03311960000428,181.99312090000603,[np.float64(-0.2633333333333333)],[np.float64(-0.0725)],[1],[0],[0],[1.006870600002003],['Target'],PARTICIPANT 2,001,2025-09-30_13h26.40.633,visual search task,,2025.1.1,60.24542782182038,2025-09-30 13h30.35.466670 +0530,
134,0,134,[np.float64(0.5008333333333334)],[np.float64(-0.32416666666666666)],[1],[0],[0],[1.2590211999922758],['Target'],134,0,134,0,182.03311960000428,,10,182.01871879999817,182.03311960000428,182.03311960000428,0.025442500002100132,183.04158109999844,183.27798159999656,[np.float64(0.5008333333333334)],[np.float64(-0.32416666666666666)],[1],[0],[0],[1.2590211999922758],['Target'],PARTICIPANT 2,001,2025-09-30_13h26.40.633,visual search task,,2025.1.1,60.24542782182038,2025-09-30 13h30.35.466670 +0530,
135,0,135,[np.float64(-0.08166666666666667)],[np.float64(0.4575)],[1],[0],[0],[1.456216399994446],['Target'],135,0,135,0,183.32058590000088,,10,183.30656979999912,183.32058590000088,183.32058590000088,0.0284451000043191,184.3264579999959,184.76300760000595,[np.float64(-0.08166666666666667)],[np.float64(0.4575)],[1],[0],[0],[1.456216399994446],['Target'],PARTICIPANT 2,001,2025-09-30_13h26.40.633,visual search task,,2025.1.1,60.24542782182038,2025-09-30 13h30.35.466670 +0530,
136,0,136,[np.float64(0.38083333333333336)],[np.float64(-0.18666666666666668)],[1],[0],[0],[1.03614870000456],['Target'],136,0,136,0,184.78778729999613,,5,184.77778910000052,184.78778729999613,184.78778729999613,0.014627399999881163,185.7946665000054,185.8141570000007,[np.float64(0.38083333333333336)],[np.float64(-0.18666666666666668)],[1],[0],[0],[1.03614870000456],['Target'],PARTICIPANT 2,001,2025-09-30_13h26.40.633,visual search task,,2025.1.1,60.24542782182038,2025-09-30 13h30.35.466670 +0530,
137,0,137,[np.float64(0.028333333333333332)],[np.float64(-0.05416666666666667)],[1],[0],[0],[1.739671699993778],['Target'],137,0,137,0,185.85705869999947,,10,185.8435746000032,185.85705869999947,185.85705869999947,0.029289500002050772,186.86242279999715,187.5834479000041,[np.float64(0.028333333333333332)],[np.float64(-0.05416666666666667)],[1],[0],[0],[1.739671699993778],['Target'],PARTICIPANT 2,001,2025-09-30_13h26.40.633,visual search task,,2025.1.1,60.24542782182038,2025-09-30 13h30.35.466670 +0530,
138,0,138,[np.float64(0.32)],[np.float64(-0.4066666666666667)],[1],[0],[0],[1.1858603000000585],['Target'],138,0,138,0,187.60804300000018,,5,187.59840560000157,187.60804300000018,187.60804300000018,0.014806299994233996,188.61465489999682,188.78449370000453,[np.float64(0.32)],[np.float64(-0.4066666666666667)],[1],[0],[0],[1.1858603000000585],['Target'],PARTICIPANT 2,001,2025-09-30_13h26.40.633,visual search task,,2025.1.1,60.24542782182038,2025-09-30 13h30.35.466670 +0530,
139,0,139,[np.float64(-0.24083333333333334)],[np.float64(0.4475)],[1],[0],[0],[1.3867964999953983],['Target'],139,0,139,0,188.8090463999979,,5,188.79959350000718,188.8090463999979,188.8090463999979,0.014977299986639991,189.81598939999822,190.18662560000666,[np.float64(-0.24083333333333334)],[np.float64(0.4475)],[1],[0],[0],[1.3867964999953983],['Target'],PARTICIPANT 2,001,2025-09-30_13h26.40.633,visual search task,,2025.1.1,60.24542782182038,2025-09-30 13h30.35.466670 +0530,
140,0,140,[np.float64(0.035833333333333335)],[np.float64(0.405)],[1],[0],[0],[1.2559643999993568],['Target'],140,0,140,0,190.22707599999558,,10,190.21349740000733,190.22707599999558,190.22707599999558,0.026690600003348663,191.23420210000768,191.46971429999394,[np.float64(0.035833333333333335)],[np.float64(0.405)],[1],[0],[0],[1.2559643999993568],['Target'],PARTICIPANT 2,001,2025-09-30_13h26.40.633,visual search task,,2025.1.1,60.24542782182038,2025-09-30 13h30.35.466670 +0530,
141,0,141,[np.float64(-0.39666666666666667)],[np.float64(-0.47583333333333333)],[1],[0],[0],[1.708069100001012],['Target'],141,0,141,0,191.5116784999991,,10,191.49757320000208,191.5116784999991,191.5116784999991,0.027624900001683272,192.51896169999964,193.20589369999652,[np.float64(-0.39666666666666667)],[np.float64(-0.47583333333333333)],[1],[0],[0],[1.708069100001012],['Target'],PARTICIPANT 2,001,2025-09-30_13h26.40.633,visual search task,,2025.1.1,60.24542782182038,2025-09-30 13h30.35.466670 +0530,
142,0,142,"[np.float64(0.14583333333333334), np.float64(0.13166666666666665)]","[np.float64(-0.4425), np.float64(-0.44083333333333335)]","[1, 1]","[0, 0]","[0, 0]","[1.239884599999641, 1.6719230000016978]","[None, 'Target']",142,0,142,0,193.24892389999877,,10,193.23468270000012,193.24892389999877,193.24892389999877,0.028597299999091774,194.25419639999745,194.90683760000684,"[np.float64(0.14583333333333334), np.float64(0.13166666666666665)]","[np.float64(-0.4425), np.float64(-0.44083333333333335)]","[1, 1]","[0, 0]","[0, 0]","[1.239884599999641, 1.6719230000016978]","[None, 'Target']",PARTICIPANT 2,001,2025-09-30_13h26.40.633,visual search task,,2025.1.1,60.24542782182038,2025-09-30 13h30.35.466670 +0530,
143,0,143,[np.float64(0.4116666666666667)],[np.float64(0.41)],[1],[0],[0],[1.2930032000003848],['Target'],143,0,143,0,194.9482921000017,,10,194.934096099998,194.9482921000017,194.9482921000017,0.02706939999188762,195.95571840000048,196.22735169999942,[np.float64(0.4116666666666667)],[np.float64(0.41)],[1],[0],[0],[1.2930032000003848],['Target'],PARTICIPANT 2,001,2025-09-30_13h26.40.633,visual search task,,2025.1.1,60.24542782182038,2025-09-30 13h30.35.466670 +0530,
144,0,144,[np.float64(-0.4066666666666667)],[np.float64(0.023333333333333334)],[1],[0],[0],[1.368377499995404],['Target'],144,0,144,0,196.25337530000252,,5,196.24285500000406,196.25337530000252,196.25337530000252,0.0152762000070652,197.25741710000148,197.61150280000584,[np.float64(-0.4066666666666667)],[np.float64(0.023333333333333334)],[1],[0],[0],[1.368377499995404],['Target'],PARTICIPANT 2,001,2025-09-30_13h26.40.633,visual search task,,2025.1.1,60.24542782182038,2025-09-30 13h30.35.466670 +0530,
145,0,145,[np.float64(0.37166666666666665)],[np.float64(-0.405)],[1],[0],[0],[1.758279899993795],['Target'],145,0,145,0,197.652468100001,,10,197.63841620000312,197.652468100001,197.652468100001,0.026726199997938238,198.65903009999602,199.39693430000625,[np.float64(0.37166666666666665)],[np.float64(-0.405)],[1],[0],[0],[1.758279899993795],['Target'],PARTICIPANT 2,001,2025-09-30_13h26.40.633,visual search task,,2025.1.1,60.24542782182038,2025-09-30 13h30.35.466670 +0530,
146,0,146,[np.float64(-0.006666666666666667)],[np.float64(-0.32916666666666666)],[1],[0],[0],[1.2005697999993572],['Target'],146,0,146,0,199.422307300003,,5,199.4121152000007,199.422307300003,199.422307300003,0.014979800005676225,200.42782850000367,200.61291650000203,[np.float64(-0.006666666666666667)],[np.float64(-0.32916666666666666)],[1],[0],[0],[1.2005697999993572],['Target'],PARTICIPANT 2,001,2025-09-30_13h26.40.633,visual search task,,2025.1.1,60.24542782182038,2025-09-30 13h30.35.466670 +0530,
147,0,147,"[np.float64(-0.5), np.float64(-0.4708333333333333)]","[np.float64(0.4891666666666667), np.float64(0.4925)]","[1, 1]","[0, 0]","[0, 0]","[1.958766600000672, 2.542624199995771]","[None, 'Target']",147,0,147,0,200.6525352000026,,10,200.63985520000278,200.6525352000026,200.6525352000026,0.02681730000767857,201.66188450000482,203.1827173000056,"[np.float64(-0.5), np.float64(-0.4708333333333333)]","[np.float64(0.4891666666666667), np.float64(0.4925)]","[1, 1]","[0, 0]","[0, 0]","[1.958766600000672, 2.542624199995771]","[None, 'Target']",PARTICIPANT 2,001,2025-09-30_13h26.40.633,visual search task,,2025.1.1,60.24542782182038,2025-09-30 13h30.35.466670 +0530,
148,0,148,[np.float64(-0.45666666666666667)],[np.float64(0.4683333333333333)],[1],[0],[0],[0.7586824000027264],['Target'],148,0,148,0,203.22215050000523,,10,203.2091606000031,203.22215050000523,203.22215050000523,0.026178900006925687,,203.96806210000068,[np.float64(-0.45666666666666667)],[np.float64(0.4683333333333333)],[1],[0],[0],[0.7586824000027264],['Target'],PARTICIPANT 2,001,2025-09-30_13h26.40.633,visual search task,,2025.1.1,60.24542782182038,2025-09-30 13h30.35.466670 +0530,
149,0,149,[np.float64(-0.0033333333333333335)],[np.float64(0.0575)],[1],[0],[0],[2.0912068000034196],['Target'],149,0,149,0,204.01021789999504,,10,203.99591979999968,204.01021789999504,204.01021789999504,0.027659299987135455,205.01618950000557,206.08738179999636,[np.float64(-0.0033333333333333335)],[np.float64(0.0575)],[1],[0],[0],[2.0912068000034196],['Target'],PARTICIPANT 2,001,2025-09-30_13h26.40.633,visual search task,,2025.1.1,60.24542782182038,2025-09-30 13h30.35.466670 +0530,
150,0,150,[np.float64(-0.095)],[np.float64(0.2275)],[1],[0],[0],[0.8375543000001926],['Target'],150,0,150,0,206.12786520000373,,10,206.1158538000018,206.12786520000373,206.12786520000373,0.028248000002349727,,206.95368790000794,[np.float64(-0.095)],[np.float64(0.2275)],[1],[0],[0],[0.8375543000001926],['Target'],PARTICIPANT 2,001,2025-09-30_13h26.40.633,visual search task,,2025.1.1,60.24542782182038,2025-09-30 13h30.35.466670 +0530,
151,0,151,[np.float64(-0.21666666666666667)],[np.float64(-0.37833333333333335)],[1],[0],[0],[1.1706954999972368],['Target'],151,0,151,0,206.97765670000808,,5,206.96795059999567,206.97765670000808,206.97765670000808,0.01399659999879077,207.98576260000118,208.13886029999412,[np.float64(-0.21666666666666667)],[np.float64(-0.37833333333333335)],[1],[0],[0],[1.1706954999972368],['Target'],PARTICIPANT 2,001,2025-09-30_13h26.40.633,visual search task,,2025.1.1,60.24542782182038,2025-09-30 13h30.35.466670 +0530,
152,0,152,[np.float64(0.059166666666666666)],[np.float64(0.3641666666666667)],[1],[0],[0],[1.4391267000028165],['Target'],152,0,152,0,208.16369299999496,,5,208.15238509999472,208.16369299999496,208.16369299999496,0.01332919999549631,209.17030149999482,209.5916978000023,[np.float64(0.059166666666666666)],[np.float64(0.3641666666666667)],[1],[0],[0],[1.4391267000028165],['Target'],PARTICIPANT 2,001,2025-09-30_13h26.40.633,visual search task,,2025.1.1,60.24542782182038,2025-09-30 13h30.35.466670 +0530,
153,0,153,[np.float64(0.13083333333333333)],[np.float64(-0.11666666666666667)],[1],[0],[0],[0.9380436999927042],['Target'],153,0,153,0,209.6338378000073,,10,209.61949549999554,209.6338378000073,209.6338378000073,0.027608399992459454,,210.557805000004,[np.float64(0.13083333333333333)],[np.float64(-0.11666666666666667)],[1],[0],[0],[0.9380436999927042],['Target'],PARTICIPANT 2,001,2025-09-30_13h26.40.633,visual search task,,2025.1.1,60.24542782182038,2025-09-30 13h30.35.466670 +0530,
154,0,154,[np.float64(-0.3375)],[np.float64(0.20083333333333334)],[1],[0],[0],[1.0053814999992028],['Target'],154,0,154,0,210.5819751999952,,5,210.57228649999888,210.5819751999952,210.5819751999952,0.014253200002713129,211.61855630000355,211.5778852999938,[np.float64(-0.3375)],[np.float64(0.20083333333333334)],[1],[0],[0],[1.0053814999992028],['Target'],PARTICIPANT 2,001,2025-09-30_13h26.40.633,visual search task,,2025.1.1,60.24542782182038,2025-09-30 13h30.35.466670 +0530,
155,0,155,[np.float64(0.065)],[np.float64(-0.17916666666666667)],[1],[0],[0],[1.053581000000122],['Target'],155,0,155,0,211.61855630000355,,10,211.60611639999843,211.61855630000355,211.61855630000355,0.028094399996916763,212.6242426999961,212.65993510000408,[np.float64(0.065)],[np.float64(-0.17916666666666667)],[1],[0],[0],[1.053581000000122],['Target'],PARTICIPANT 2,001,2025-09-30_13h26.40.633,visual search task,,2025.1.1,60.24542782182038,2025-09-30 13h30.35.466670 +0530,
156,0,156,[np.float64(0.29083333333333333)],[np.float64(-0.47333333333333333)],[1],[0],[0],[1.310236300007091],['Target'],156,0,156,0,212.69862490000378,,10,212.68515849999676,212.69862490000378,212.69862490000378,0.02502950000052806,213.70804450000287,213.9955934000027,[np.float64(0.29083333333333333)],[np.float64(-0.47333333333333333)],[1],[0],[0],[1.310236300007091],['Target'],PARTICIPANT 2,001,2025-09-30_13h26.40.633,visual search task,,2025.1.1,60.24542782182038,2025-09-30 13h30.35.466670 +0530,
157,0,157,[np.float64(0.39416666666666667)],[np.float64(0.44166666666666665)],[1],[0],[0],[1.0704041999997571],['Target'],157,0,157,0,214.01919720000296,,5,214.009495899998,214.01919720000296,214.01919720000296,0.013703700009500608,215.02694229999906,215.0801250999939,[np.float64(0.39416666666666667)],[np.float64(0.44166666666666665)],[1],[0],[0],[1.0704041999997571],['Target'],PARTICIPANT 2,001,2025-09-30_13h26.40.633,visual search task,,2025.1.1,60.24542782182038,2025-09-30 13h30.35.466670 +0530,
158,0,158,[np.float64(0.12666666666666668)],[np.float64(-0.2775)],[1],[0],[0],[1.0736831999965943],['Target'],158,0,158,0,215.12145859999873,,10,215.10663189999468,215.12145859999873,215.12145859999873,0.02631479999399744,216.1281314999942,216.18054280000797,[np.float64(0.12666666666666668)],[np.float64(-0.2775)],[1],[0],[0],[1.0736831999965943],['Target'],PARTICIPANT 2,001,2025-09-30_13h26.40.633,visual search task,,2025.1.1,60.24542782182038,2025-09-30 13h30.35.466670 +0530,
159,0,159,[np.float64(-0.29333333333333333)],[np.float64(-0.26666666666666666)],[1],[0],[0],[1.28935979999369],['Target'],159,0,159,0,216.22373919999518,,10,216.21024970000144,216.22373919999518,216.22373919999518,0.02949559999979101,217.2292099000042,217.4998837000021,[np.float64(-0.29333333333333333)],[np.float64(-0.26666666666666666)],[1],[0],[0],[1.28935979999369],['Target'],PARTICIPANT 2,001,2025-09-30_13h26.40.633,visual search task,,2025.1.1,60.24542782182038,2025-09-30 13h30.35.466670 +0530,
160,0,160,[np.float64(0.31833333333333336)],[np.float64(0.2575)],[1],[0],[0],[1.3053892999887466],['Target'],160,0,160,0,217.54085489999852,,10,217.5284488000034,217.54085489999852,217.54085489999852,0.02831920000608079,218.54727110000385,218.83406520000426,[np.float64(0.31833333333333336)],[np.float64(0.2575)],[1],[0],[0],[1.3053892999887466],['Target'],PARTICIPANT 2,001,2025-09-30_13h26.40.633,visual search task,,2025.1.1,60.24542782182038,2025-09-30 13h30.35.466670 +0530,
161,0,161,[np.float64(-0.30916666666666665)],[np.float64(-0.12916666666666668)],[1],[0],[0],[1.0281761000078404],['Target'],161,0,161,0,218.87464470000123,,10,218.8610292999947,218.87464470000123,218.87464470000123,0.026762699999380857,219.88450749999902,219.88947819999885,[np.float64(-0.30916666666666665)],[np.float64(-0.12916666666666668)],[1],[0],[0],[1.0281761000078404],['Target'],PARTICIPANT 2,001,2025-09-30_13h26.40.633,visual search task,,2025.1.1,60.24542782182038,2025-09-30 13h30.35.466670 +0530,
162,0,162,[np.float64(0.2783333333333333)],[np.float64(-0.21833333333333332)],[1],[0],[0],[1.0711891999962972],['Target'],162,0,162,0,219.92638400000578,,10,219.9139542000048,219.92638400000578,219.92638400000578,0.02419299999019131,220.9330428999965,220.98536649999733,[np.float64(0.2783333333333333)],[np.float64(-0.21833333333333332)],[1],[0],[0],[1.0711891999962972],['Target'],PARTICIPANT 2,001,2025-09-30_13h26.40.633,visual search task,,2025.1.1,60.24542782182038,2025-09-30 13h30.35.466670 +0530,
163,0,163,"[np.float64(-0.14833333333333334), np.float64(-0.16166666666666665)]","[np.float64(-0.4041666666666667), np.float64(-0.3958333333333333)]","[1, 1]","[0, 0]","[0, 0]","[0.9375134000001708, 1.453974100004416]","[None, 'Target']",163,0,163,0,221.00828779999574,,5,220.99985500000184,221.00828779999574,221.00828779999574,0.01428709999890998,222.01785319999908,222.45403019999503,"[np.float64(-0.14833333333333334), np.float64(-0.16166666666666665)]","[np.float64(-0.4041666666666667), np.float64(-0.3958333333333333)]","[1, 1]","[0, 0]","[0, 0]","[0.9375134000001708, 1.453974100004416]","[None, 'Target']",PARTICIPANT 2,001,2025-09-30_13h26.40.633,visual search task,,2025.1.1,60.24542782182038,2025-09-30 13h30.35.466670 +0530,
164,0,164,"[np.float64(-0.47), np.float64(-0.4608333333333333)]","[np.float64(0.01), np.float64(-0.02666666666666667)]","[1, 1]","[0, 0]","[0, 0]","[1.0724275000102352, 1.5390895000018645]","[None, 'Target']",164,0,164,0,222.4957246999984,,10,222.4831223999936,222.4957246999984,222.4957246999984,0.028707200006465428,223.50266870000632,224.02242609999666,"[np.float64(-0.47), np.float64(-0.4608333333333333)]","[np.float64(0.01), np.float64(-0.02666666666666667)]","[1, 1]","[0, 0]","[0, 0]","[1.0724275000102352, 1.5390895000018645]","[None, 'Target']",PARTICIPANT 2,001,2025-09-30_13h26.40.633,visual search task,,2025.1.1,60.24542782182038,2025-09-30 13h30.35.466670 +0530,
165,0,165,[np.float64(0.1175)],[np.float64(0.3675)],[1],[0],[0],[1.5358515999978408],['Target'],165,0,165,0,224.0479633000068,,5,224.03892259999702,224.0479633000068,224.0479633000068,0.016238100011833012,225.05456550000235,225.57499360000656,[np.float64(0.1175)],[np.float64(0.3675)],[1],[0],[0],[1.5358515999978408],['Target'],PARTICIPANT 2,001,2025-09-30_13h26.40.633,visual search task,,2025.1.1,60.24542782182038,2025-09-30 13h30.35.466670 +0530,
166,0,166,[np.float64(-0.3883333333333333)],[np.float64(0.1525)],[1],[0],[0],[1.0386833000084152],['Target'],166,0,166,0,225.61628010000277,,10,225.6029775000061,225.61628010000277,225.61628010000277,0.027663100001518615,226.62294709999696,226.64186800000607,[np.float64(-0.3883333333333333)],[np.float64(0.1525)],[1],[0],[0],[1.0386833000084152],['Target'],PARTICIPANT 2,001,2025-09-30_13h26.40.633,visual search task,,2025.1.1,60.24542782182038,2025-09-30 13h30.35.466670 +0530,
167,0,167,[np.float64(-0.2775)],[np.float64(0.056666666666666664)],[1],[0],[0],[0.7361373999883654],['Target'],167,0,167,0,226.66725280000537,,5,226.6571072999941,226.66725280000537,226.66725280000537,0.0148961000086274,,227.39350150000246,[np.float64(-0.2775)],[np.float64(0.056666666666666664)],[1],[0],[0],[0.7361373999883654],['Target'],PARTICIPANT 2,001,2025-09-30_13h26.40.633,visual search task,,2025.1.1,60.24542782182038,2025-09-30 13h30.35.466670 +0530,
168,0,168,[np.float64(-0.095)],[np.float64(-0.14416666666666667)],[1],[0],[0],[0.817961099994136],['Target'],168,0,168,0,227.41784540000663,,5,227.4089241000038,227.41784540000663,227.41784540000663,0.015236000006552786,,228.22712530000717,[np.float64(-0.095)],[np.float64(-0.14416666666666667)],[1],[0],[0],[0.817961099994136],['Target'],PARTICIPANT 2,001,2025-09-30_13h26.40.633,visual search task,,2025.1.1,60.24542782182038,2025-09-30 13h30.35.466670 +0530,
169,0,169,[np.float64(0.0775)],[np.float64(0.05)],[1],[0],[0],[0.785526799998479],['Target'],169,0,169,0,228.25198280000768,,5,228.24228649999714,228.25198280000768,228.25198280000768,0.014991100004408509,,229.0280569000024,[np.float64(0.0775)],[np.float64(0.05)],[1],[0],[0],[0.785526799998479],['Target'],PARTICIPANT 2,001,2025-09-30_13h26.40.633,visual search task,,2025.1.1,60.24542782182038,2025-09-30 13h30.35.466670 +0530,
170,0,170,[np.float64(-0.0725)],[np.float64(0.3591666666666667)],[1],[0],[0],[1.4268173000018578],['Target'],170,0,170,0,229.06738370000676,,10,229.0541818000056,229.06738370000676,229.06738370000676,0.025915400008670986,230.076862300004,230.48123760000453,[np.float64(-0.0725)],[np.float64(0.3591666666666667)],[1],[0],[0],[1.4268173000018578],['Target'],PARTICIPANT 2,001,2025-09-30_13h26.40.633,visual search task,,2025.1.1,60.24542782182038,2025-09-30 13h30.35.466670 +0530,
171,0,171,"[np.float64(-0.44583333333333336), np.float64(-0.43416666666666665)]","[np.float64(0.4125), np.float64(0.38916666666666666)]","[1, 1]","[0, 0]","[0, 0]","[0.7680188000085764, 1.251051200000802]","[None, 'Target']",171,0,171,0,230.50699419999728,,5,230.49618740000005,230.50699419999728,230.50699419999728,0.014735500008100644,231.5113022000005,231.74748770000588,"[np.float64(-0.44583333333333336), np.float64(-0.43416666666666665)]","[np.float64(0.4125), np.float64(0.38916666666666666)]","[1, 1]","[0, 0]","[0, 0]","[0.7680188000085764, 1.251051200000802]","[None, 'Target']",PARTICIPANT 2,001,2025-09-30_13h26.40.633,visual search task,,2025.1.1,60.24542782182038,2025-09-30 13h30.35.466670 +0530,
172,0,172,[np.float64(0.12083333333333333)],[np.float64(0.16333333333333333)],[1],[0],[0],[1.03560460000881],['Target'],172,0,172,0,231.77253079999355,,5,231.76295020000543,231.77253079999355,231.77253079999355,0.015241899993270636,232.77951920000487,232.7987826000026,[np.float64(0.12083333333333333)],[np.float64(0.16333333333333333)],[1],[0],[0],[1.03560460000881],['Target'],PARTICIPANT 2,001,2025-09-30_13h26.40.633,visual search task,,2025.1.1,60.24542782182038,2025-09-30 13h30.35.466670 +0530,
173,0,173,[np.float64(0.465)],[np.float64(-0.0475)],[1],[0],[0],[1.2575445999973454],['Target'],173,0,173,0,232.83941600000253,,10,232.8263011999952,232.83941600000253,232.83941600000253,0.02740289999928791,233.84745450000628,234.08407529999386,[np.float64(0.465)],[np.float64(-0.0475)],[1],[0],[0],[1.2575445999973454],['Target'],PARTICIPANT 2,001,2025-09-30_13h26.40.633,visual search task,,2025.1.1,60.24542782182038,2025-09-30 13h30.35.466670 +0530,
174,0,174,[np.float64(0.14416666666666667)],[np.float64(0.24)],[1],[0],[0],[0.7866420999926049],['Target'],174,0,174,0,234.10842380000395,,5,234.09874200000195,234.10842380000395,234.10842380000395,0.014520700002321973,,234.88561939999636,[np.float64(0.14416666666666667)],[np.float64(0.24)],[1],[0],[0],[0.7866420999926049],['Target'],PARTICIPANT 2,001,2025-09-30_13h26.40.633,visual search task,,2025.1.1,60.24542782182038,2025-09-30 13h30.35.466670 +0530,
175,0,175,[np.float64(-0.2375)],[np.float64(-0.4141666666666667)],[1],[0],[0],[1.4695403999940027],['Target'],175,0,175,0,234.91073200000392,,5,234.89941090000502,234.91073200000392,234.91073200000392,0.013655600007041357,235.9167180999939,236.36914150000666,[np.float64(-0.2375)],[np.float64(-0.4141666666666667)],[1],[0],[0],[1.4695403999940027],['Target'],PARTICIPANT 2,001,2025-09-30_13h26.40.633,visual search task,,2025.1.1,60.24542782182038,2025-09-30 13h30.35.466670 +0530,
176,0,176,[np.float64(-0.4083333333333333)],[np.float64(0.25333333333333335)],[1],[0],[0],[1.018862299999455],['Target'],176,0,176,0,236.39531750000606,,5,236.38474110000243,236.39531750000606,236.39531750000606,0.01543469999160152,237.40120940000634,237.40384519999498,[np.float64(-0.4083333333333333)],[np.float64(0.25333333333333335)],[1],[0],[0],[1.018862299999455],['Target'],PARTICIPANT 2,001,2025-09-30_13h26.40.633,visual search task,,2025.1.1,60.24542782182038,2025-09-30 13h30.35.466670 +0530,
177,0,177,[np.float64(0.0425)],[np.float64(0.050833333333333335)],[1],[0],[0],[1.1212722000054782],['Target'],177,0,177,0,237.44540349999443,,10,237.43308529999922,237.44540349999443,237.44540349999443,0.02910320000955835,238.45397180000145,238.55460380000295,[np.float64(0.0425)],[np.float64(0.050833333333333335)],[1],[0],[0],[1.1212722000054782],['Target'],PARTICIPANT 2,001,2025-09-30_13h26.40.633,visual search task,,2025.1.1,60.24542782182038,2025-09-30 13h30.35.466670 +0530,
178,0,178,[np.float64(0.31333333333333335)],[np.float64(-0.3516666666666667)],[1],[0],[0],[1.044670400005998],['Target'],178,0,178,0,238.58909090000088,,10,238.57751930000086,238.58909090000088,238.58909090000088,0.022785499997553416,239.6032852000062,239.6224252999964,[np.float64(0.31333333333333335)],[np.float64(-0.3516666666666667)],[1],[0],[0],[1.044670400005998],['Target'],PARTICIPANT 2,001,2025-09-30_13h26.40.633,visual search task,,2025.1.1,60.24542782182038,2025-09-30 13h30.35.466670 +0530,
179,0,179,[np.float64(0.024166666666666666)],[np.float64(0.14583333333333334)],[1],[0],[0],[0.8745033000013791],['Target'],179,0,179,0,239.6618862000032,,10,239.6485798000067,239.6618862000032,239.6618862000032,0.02601620000496041,,240.52331109999795,[np.float64(0.024166666666666666)],[np.float64(0.14583333333333334)],[1],[0],[0],[0.8745033000013791],['Target'],PARTICIPANT 2,001,2025-09-30_13h26.40.633,visual search task,,2025.1.1,60.24542782182038,2025-09-30 13h30.35.466670 +0530,
180,0,180,[np.float64(-0.18)],[np.float64(0.27416666666666667)],[1],[0],[0],[0.8763146999990568],['Target'],180,0,180,0,240.56077150000783,,10,240.5479226000025,240.56077150000783,240.56077150000783,0.024450099997920915,,241.42447549999633,[np.float64(-0.18)],[np.float64(0.27416666666666667)],[1],[0],[0],[0.8763146999990568],['Target'],PARTICIPANT 2,001,2025-09-30_13h26.40.633,visual search task,,2025.1.1,60.24542782182038,2025-09-30 13h30.35.466670 +0530,
181,0,181,[np.float64(-0.4825)],[np.float64(0.255)],[1],[0],[0],[0.7211937999963993],['Target'],181,0,181,0,241.44883399999526,,5,241.43810820000363,241.44883399999526,241.44883399999526,0.013409100007265806,,242.15954209999472,[np.float64(-0.4825)],[np.float64(0.255)],[1],[0],[0],[0.7211937999963993],['Target'],PARTICIPANT 2,001,2025-09-30_13h26.40.633,visual search task,,2025.1.1,60.24542782182038,2025-09-30 13h30.35.466670 +0530,
182,0,182,[np.float64(0.08)],[np.float64(-0.39)],[1],[0],[0],[1.1577628000086406],['Target'],182,0,182,0,242.20031620000373,,10,242.1864373999997,242.20031620000373,242.20031620000373,0.026706299991928972,243.20770400000038,243.34440709999762,[np.float64(0.08)],[np.float64(-0.39)],[1],[0],[0],[1.1577628000086406],['Target'],PARTICIPANT 2,001,2025-09-30_13h26.40.633,visual search task,,2025.1.1,60.24542782182038,2025-09-30 13h30.35.466670 +0530,
183,0,183,"[np.float64(0.06583333333333333), np.float64(0.023333333333333334)]","[np.float64(-0.025), np.float64(0.115)]","[1, 1]","[0, 0]","[0, 0]","[1.4027646999893477, 1.9534711000014795]","[None, 'Target']",183,0,183,0,243.36706059999415,,5,243.3581894999952,243.36706059999415,243.36706059999415,0.013697700007469393,244.37573280000652,245.31198670000595,"[np.float64(0.06583333333333333), np.float64(0.023333333333333334)]","[np.float64(-0.025), np.float64(0.115)]","[1, 1]","[0, 0]","[0, 0]","[1.4027646999893477, 1.9534711000014795]","[None, 'Target']",PARTICIPANT 2,001,2025-09-30_13h26.40.633,visual search task,,2025.1.1,60.24542782182038,2025-09-30 13h30.35.466670 +0530,
184,0,184,"[np.float64(0.405), np.float64(0.3858333333333333)]","[np.float64(-0.06583333333333333), np.float64(-0.055)]","[1, 1]","[0, 0]","[0, 0]","[0.8557069999951636, 1.3221789999952307]","[None, 'Target']",184,0,184,0,245.35393470000417,,10,245.34097800000745,245.35393470000417,245.35393470000417,0.028827300004195422,246.36161069999798,246.66336229999433,"[np.float64(0.405), np.float64(0.3858333333333333)]","[np.float64(-0.06583333333333333), np.float64(-0.055)]","[1, 1]","[0, 0]","[0, 0]","[0.8557069999951636, 1.3221789999952307]","[None, 'Target']",PARTICIPANT 2,001,2025-09-30_13h26.40.633,visual search task,,2025.1.1,60.24542782182038,2025-09-30 13h30.35.466670 +0530,
185,0,185,"[np.float64(-0.2825), np.float64(-0.2825), np.float64(-0.27416666666666667)]","[np.float64(0.5), np.float64(0.49583333333333335), np.float64(0.46416666666666667)]","[1, 1, 1]","[0, 0, 0]","[0, 0, 0]","[1.274759100007941, 1.742513200006215, 2.15916969999671]","[None, None, 'Target']",185,0,185,0,246.7038945999957,,10,246.69013430000632,246.7038945999957,246.7038945999957,0.02659559999301564,247.71248849999392,248.84955509999418,"[np.float64(-0.2825), np.float64(-0.2825), np.float64(-0.27416666666666667)]","[np.float64(0.5), np.float64(0.49583333333333335), np.float64(0.46416666666666667)]","[1, 1, 1]","[0, 0, 0]","[0, 0, 0]","[1.274759100007941, 1.742513200006215, 2.15916969999671]","[None, None, 'Target']",PARTICIPANT 2,001,2025-09-30_13h26.40.633,visual search task,,2025.1.1,60.24542782182038,2025-09-30 13h30.35.466670 +0530,
186,0,186,[np.float64(0.2683333333333333)],[np.float64(-0.15)],[1],[0],[0],[1.2735807999997633],['Target'],186,0,186,0,248.89101150000351,,10,248.8775103999942,248.89101150000351,248.89101150000351,0.027677899997797795,249.8986670000013,250.1513169999962,[np.float64(0.2683333333333333)],[np.float64(-0.15)],[1],[0],[0],[1.2735807999997633],['Target'],PARTICIPANT 2,001,2025-09-30_13h26.40.633,visual search task,,2025.1.1,60.24542782182038,2025-09-30 13h30.35.466670 +0530,
187,0,187,[np.float64(-0.06833333333333333)],[np.float64(-0.0025)],[1],[0],[0],[1.7408471000089776],['Target'],187,0,187,0,250.1920264000073,,10,250.1786426000035,250.1920264000073,250.1920264000073,0.027131199996802025,251.19938150000235,251.91970110000693,[np.float64(-0.06833333333333333)],[np.float64(-0.0025)],[1],[0],[0],[1.7408471000089776],['Target'],PARTICIPANT 2,001,2025-09-30_13h26.40.633,visual search task,,2025.1.1,60.24542782182038,2025-09-30 13h30.35.466670 +0530,
188,0,188,[np.float64(-0.2175)],[np.float64(0.21333333333333335)],[1],[0],[0],[0.8036882000014884],['Target'],188,0,188,0,251.94254750000255,,5,251.9335071999958,251.94254750000255,251.94254750000255,0.013668000014149584,,252.73741149999842,[np.float64(-0.2175)],[np.float64(0.21333333333333335)],[1],[0],[0],[0.8036882000014884],['Target'],PARTICIPANT 2,001,2025-09-30_13h26.40.633,visual search task,,2025.1.1,60.24542782182038,2025-09-30 13h30.35.466670 +0530,
189,0,189,"[np.float64(-0.13666666666666666), np.float64(-0.1)]","[np.float64(0.13916666666666666), np.float64(0.12916666666666668)]","[1, 1]","[0, 0]","[0, 0]","[0.7411082000035094, 1.2915272999962326]","[None, 'Target']",189,0,189,0,252.77616219999618,,10,252.7642063999956,252.77616219999618,252.77616219999618,0.026667700003599748,253.7859041000047,254.05595300000277,"[np.float64(-0.13666666666666666), np.float64(-0.1)]","[np.float64(0.13916666666666666), np.float64(0.12916666666666668)]","[1, 1]","[0, 0]","[0, 0]","[0.7411082000035094, 1.2915272999962326]","[None, 'Target']",PARTICIPANT 2,001,2025-09-30_13h26.40.633,visual search task,,2025.1.1,60.24542782182038,2025-09-30 13h30.35.466670 +0530,
