thisN,thisTrialN,thisRepN,mouse.x,mouse.y,mouse.leftButton,mouse.midButton,mouse.rightButton,mouse.time,mouse.clicked_name,trials.thisRepN,trials.thisTrialN,trials.thisN,trials.thisIndex,thisRow.t,notes,num_distr,trial.started,fixation.started,Target.started,mouse.started,fixation.stopped,trial.stopped,trials.mouse.x,trials.mouse.y,trials.mouse.leftButton,trials.mouse.midButton,trials.mouse.rightButton,trials.mouse.time,trials.mouse.clicked_name,participant,session,date,expName,expVersion,psychopyVersion,frameRate,expStart,
0,0,0,[np.float64(0.18083333333333335)],[np.float64(0.49)],[1],[0],[0],[2.6337468000128865],['Target'],0,0,0,0,0.037067299999762326,,5,0.02556350000668317,0.037067299999762326,0.037067299999762326,0.025606200011679903,1.0372154000069713,2.659566400005133,[np.float64(0.18083333333333335)],[np.float64(0.49)],[1],[0],[0],[2.6337468000128865],['Target'],Participant 4,001,2025-09-30_13h44.30.212,visual search task,,2025.1.1,59.921538737907404,2025-09-30 13h44.47.354168 +0530,
1,0,1,[np.float64(-0.24583333333333332)],[np.float64(-0.025833333333333333)],[1],[0],[0],[1.1371160999988206],['Target'],1,0,1,0,2.683071799998288,,5,2.673891900005401,2.683071799998288,2.683071799998288,0.0141276999929687,3.69023069999821,3.8112389000016265,[np.float64(-0.24583333333333332)],[np.float64(-0.025833333333333333)],[1],[0],[0],[1.1371160999988206],['Target'],Participant 4,001,2025-09-30_13h44.30.212,visual search task,,2025.1.1,59.921538737907404,2025-09-30 13h44.47.354168 +0530,
2,0,2,[np.float64(0.10416666666666667)],[np.float64(-0.005833333333333334)],[1],[0],[0],[2.094268500004546],['Target'],2,0,2,0,3.847998800003552,,10,3.8358124000078533,3.847998800003552,3.847998800003552,0.024447699994198047,4.858274500002153,5.930290200005402,[np.float64(0.10416666666666667)],[np.float64(-0.005833333333333334)],[1],[0],[0],[2.094268500004546],['Target'],Participant 4,001,2025-09-30_13h44.30.212,visual search task,,2025.1.1,59.921538737907404,2025-09-30 13h44.47.354168 +0530,
3,0,3,[np.float64(-0.28)],[np.float64(-0.155)],[1],[0],[0],[0.8707581000053324],['Target'],3,0,3,0,5.973053699999582,,10,5.959934500002419,5.973053699999582,5.973053699999582,0.029433799994876608,,6.830950000003213,[np.float64(-0.28)],[np.float64(-0.155)],[1],[0],[0],[0.8707581000053324],['Target'],Participant 4,001,2025-09-30_13h44.30.212,visual search task,,2025.1.1,59.921538737907404,2025-09-30 13h44.47.354168 +0530,
4,0,4,[np.float64(0.19333333333333333)],[np.float64(-0.49916666666666665)],[1],[0],[0],[1.376897399997688],['Target'],4,0,4,0,6.868259399998351,,10,6.856385200007935,6.868259399998351,6.868259399998351,0.025190999993355945,7.878124200011371,8.233503900002688,[np.float64(0.19333333333333333)],[np.float64(-0.49916666666666665)],[1],[0],[0],[1.376897399997688],['Target'],Participant 4,001,2025-09-30_13h44.30.212,visual search task,,2025.1.1,59.921538737907404,2025-09-30 13h44.47.354168 +0530,
5,0,5,[np.float64(-0.2425)],[np.float64(0.42)],[1],[0],[0],[1.203693799994653],['Target'],5,0,5,0,8.253911799998605,,5,8.245779500008211,8.253911799998605,8.253911799998605,0.012081599998055026,9.263305400003446,9.449680600009742,[np.float64(-0.2425)],[np.float64(0.42)],[1],[0],[0],[1.203693799994653],['Target'],Participant 4,001,2025-09-30_13h44.30.212,visual search task,,2025.1.1,59.921538737907404,2025-09-30 13h44.47.354168 +0530,
6,0,6,[np.float64(-0.21333333333333335)],[np.float64(0.1425)],[1],[0],[0],[0.7914096000022255],['Target'],6,0,6,0,9.489223100012168,,10,9.476196800009347,9.489223100012168,9.489223100012168,0.02634889999171719,,10.26785670001118,[np.float64(-0.21333333333333335)],[np.float64(0.1425)],[1],[0],[0],[0.7914096000022255],['Target'],Participant 4,001,2025-09-30_13h44.30.212,visual search task,,2025.1.1,59.921538737907404,2025-09-30 13h44.47.354168 +0530,
7,0,7,[np.float64(-0.03833333333333333)],[np.float64(-0.025)],[1],[0],[0],[1.2527024000009988],['Target'],7,0,7,0,10.29209480001009,,5,10.283013699998264,10.29209480001009,10.29209480001009,0.014928299991879612,11.29855900000257,11.535975600010715,[np.float64(-0.03833333333333333)],[np.float64(-0.025)],[1],[0],[0],[1.2527024000009988],['Target'],Participant 4,001,2025-09-30_13h44.30.212,visual search task,,2025.1.1,59.921538737907404,2025-09-30 13h44.47.354168 +0530,
8,0,8,[np.float64(-0.11333333333333333)],[np.float64(-0.043333333333333335)],[1],[0],[0],[0.6173502000019653],['Target'],8,0,8,0,11.560913400011486,,5,11.552627500001108,11.560913400011486,11.560913400011486,0.0164673999970546,,12.170179200009443,[np.float64(-0.11333333333333333)],[np.float64(-0.043333333333333335)],[1],[0],[0],[0.6173502000019653],['Target'],Participant 4,001,2025-09-30_13h44.30.212,visual search task,,2025.1.1,59.921538737907404,2025-09-30 13h44.47.354168 +0530,
9,0,9,"[np.float64(0.4583333333333333), np.float64(0.465), np.float64(0.47833333333333333)]","[np.float64(0.425), np.float64(0.4225), np.float64(0.42083333333333334)]","[1, 1, 1]","[0, 0, 0]","[0, 0, 0]","[1.1896983000042383, 1.6569944000075338, 2.1575264999992214]","[None, None, 'Target']",9,0,9,0,12.208709500002442,,10,12.197159800009103,12.208709500002442,12.208709500002442,0.02677310000581201,13.217106800002512,14.354893399999128,"[np.float64(0.4583333333333333), np.float64(0.465), np.float64(0.47833333333333333)]","[np.float64(0.425), np.float64(0.4225), np.float64(0.42083333333333334)]","[1, 1, 1]","[0, 0, 0]","[0, 0, 0]","[1.1896983000042383, 1.6569944000075338, 2.1575264999992214]","[None, None, 'Target']",Participant 4,001,2025-09-30_13h44.30.212,visual search task,,2025.1.1,59.921538737907404,2025-09-30 13h44.47.354168 +0530,
10,0,10,[np.float64(-0.295)],[np.float64(-0.4091666666666667)],[1],[0],[0],[1.5020166000031168],['Target'],10,0,10,0,14.379399800003739,,5,14.370851700005005,14.379399800003739,14.379399800003739,0.015671500004827976,15.386124000011478,15.873088200009079,[np.float64(-0.295)],[np.float64(-0.4091666666666667)],[1],[0],[0],[1.5020166000031168],['Target'],Participant 4,001,2025-09-30_13h44.30.212,visual search task,,2025.1.1,59.921538737907404,2025-09-30 13h44.47.354168 +0530,
11,0,11,[np.float64(0.485)],[np.float64(0.016666666666666666)],[1],[0],[0],[1.0544187000050442],['Target'],11,0,11,0,15.895011100001284,,5,15.886649100008071,15.895011100001284,15.895011100001284,0.01344490000337828,16.904286700009834,16.94132990000071,[np.float64(0.485)],[np.float64(0.016666666666666666)],[1],[0],[0],[1.0544187000050442],['Target'],Participant 4,001,2025-09-30_13h44.30.212,visual search task,,2025.1.1,59.921538737907404,2025-09-30 13h44.47.354168 +0530,
12,0,12,[np.float64(0.39)],[np.float64(0.4508333333333333)],[1],[0],[0],[1.108536899992032],['Target'],12,0,12,0,16.97885440000391,,10,16.966855500009842,16.97885440000391,16.97885440000391,0.02533679999760352,17.98907940000936,18.075580500008073,[np.float64(0.39)],[np.float64(0.4508333333333333)],[1],[0],[0],[1.108536899992032],['Target'],Participant 4,001,2025-09-30_13h44.30.212,visual search task,,2025.1.1,59.921538737907404,2025-09-30 13h44.47.354168 +0530,
13,0,13,[np.float64(-0.14916666666666667)],[np.float64(0.024166666666666666)],[1],[0],[0],[1.0719806999986758],['Target'],13,0,13,0,18.096827200002735,,5,18.088144500012277,18.096827200002735,18.096827200002735,0.012378399987937883,19.10669470000721,19.16040680000151,[np.float64(-0.14916666666666667)],[np.float64(0.024166666666666666)],[1],[0],[0],[1.0719806999986758],['Target'],Participant 4,001,2025-09-30_13h44.30.212,visual search task,,2025.1.1,59.921538737907404,2025-09-30 13h44.47.354168 +0530,
14,0,14,[np.float64(-0.1025)],[np.float64(-0.22416666666666665)],[1],[0],[0],[0.7516631000034977],['Target'],14,0,14,0,19.18545710000035,,5,19.175909000012325,19.18545710000035,19.18545710000035,0.015313800002331845,,19.92784920000122,[np.float64(-0.1025)],[np.float64(-0.22416666666666665)],[1],[0],[0],[0.7516631000034977],['Target'],Participant 4,001,2025-09-30_13h44.30.212,visual search task,,2025.1.1,59.921538737907404,2025-09-30 13h44.47.354168 +0530,
15,0,15,[np.float64(-0.27166666666666667)],[np.float64(0.17333333333333334)],[1],[0],[0],[0.8181640999973752],['Target'],15,0,15,0,19.952302500008955,,5,19.943813800011412,19.952302500008955,19.952302500008955,0.01579150000179652,,20.76220350000949,[np.float64(-0.27166666666666667)],[np.float64(0.17333333333333334)],[1],[0],[0],[0.8181640999973752],['Target'],Participant 4,001,2025-09-30_13h44.30.212,visual search task,,2025.1.1,59.921538737907404,2025-09-30 13h44.47.354168 +0530,
16,0,16,"[np.float64(0.37166666666666665), np.float64(0.3775)]","[np.float64(0.4475), np.float64(0.4558333333333333)]","[1, 1]","[0, 0]","[0, 0]","[2.004048899994814, 2.5217880999989575]","[None, 'Target']",16,0,16,0,20.78631180000957,,5,20.776215000005323,20.78631180000957,20.78631180000957,0.013844900007825345,21.79332000001159,23.298244999998133,"[np.float64(0.37166666666666665), np.float64(0.3775)]","[np.float64(0.4475), np.float64(0.4558333333333333)]","[1, 1]","[0, 0]","[0, 0]","[2.004048899994814, 2.5217880999989575]","[None, 'Target']",Participant 4,001,2025-09-30_13h44.30.212,visual search task,,2025.1.1,59.921538737907404,2025-09-30 13h44.47.354168 +0530,
17,0,17,[np.float64(0.03166666666666667)],[np.float64(0.09083333333333334)],[1],[0],[0],[1.8702851999987615],['Target'],17,0,17,0,23.340849700005492,,10,23.3276179000095,23.340849700005492,23.340849700005492,0.029152700008125976,24.34599440000602,25.19811860000482,[np.float64(0.03166666666666667)],[np.float64(0.09083333333333334)],[1],[0],[0],[1.8702851999987615],['Target'],Participant 4,001,2025-09-30_13h44.30.212,visual search task,,2025.1.1,59.921538737907404,2025-09-30 13h44.47.354168 +0530,
18,0,18,[np.float64(-0.33166666666666667)],[np.float64(-0.035)],[1],[0],[0],[0.9787208999914583],['Target'],18,0,18,0,25.234112999998615,,10,25.222136500000488,25.234112999998615,25.234112999998615,0.023842399998102337,,26.201032700002543,[np.float64(-0.33166666666666667)],[np.float64(-0.035)],[1],[0],[0],[0.9787208999914583],['Target'],Participant 4,001,2025-09-30_13h44.30.212,visual search task,,2025.1.1,59.921538737907404,2025-09-30 13h44.47.354168 +0530,
19,0,19,[np.float64(-0.42)],[np.float64(0.2425)],[1],[0],[0],[0.9036387999949511],['Target'],19,0,19,0,26.224442100006854,,5,26.214563300003647,26.224442100006854,26.224442100006854,0.013341400001081638,,27.11838450000505,[np.float64(-0.42)],[np.float64(0.2425)],[1],[0],[0],[0.9036387999949511],['Target'],Participant 4,001,2025-09-30_13h44.30.212,visual search task,,2025.1.1,59.921538737907404,2025-09-30 13h44.47.354168 +0530,
20,0,20,[np.float64(-0.4191666666666667)],[np.float64(-0.3075)],[1],[0],[0],[0.9211799999902723],['Target'],20,0,20,0,27.14049299999897,,5,27.131582500005607,27.14049299999897,27.14049299999897,0.013022099999943748,,28.052946600000723,[np.float64(-0.4191666666666667)],[np.float64(-0.3075)],[1],[0],[0],[0.9211799999902723],['Target'],Participant 4,001,2025-09-30_13h44.30.212,visual search task,,2025.1.1,59.921538737907404,2025-09-30 13h44.47.354168 +0530,
21,0,21,[np.float64(-0.19333333333333333)],[np.float64(0.07916666666666666)],[1],[0],[0],[1.0231144999997923],['Target'],21,0,21,0,28.092839500008267,,10,28.079593800008297,28.092839500008267,28.092839500008267,0.026458299995283596,29.10090210000635,29.103009099999326,[np.float64(-0.19333333333333333)],[np.float64(0.07916666666666666)],[1],[0],[0],[1.0231144999997923],['Target'],Participant 4,001,2025-09-30_13h44.30.212,visual search task,,2025.1.1,59.921538737907404,2025-09-30 13h44.47.354168 +0530,
22,0,22,[np.float64(0.19916666666666666)],[np.float64(0.3416666666666667)],[1],[0],[0],[1.0620109000010416],['Target'],22,0,22,0,29.140150899998844,,10,29.128410100005567,29.140150899998844,29.140150899998844,0.025178199997753836,30.152517399998032,30.190621700006886,[np.float64(0.19916666666666666)],[np.float64(0.3416666666666667)],[1],[0],[0],[1.0620109000010416],['Target'],Participant 4,001,2025-09-30_13h44.30.212,visual search task,,2025.1.1,59.921538737907404,2025-09-30 13h44.47.354168 +0530,
23,0,23,[np.float64(-0.43666666666666665)],[np.float64(0.10083333333333333)],[1],[0],[0],[0.9235205000004498],['Target'],23,0,23,0,30.227756899999804,,10,30.21591250000347,30.227756899999804,30.227756899999804,0.025052700002561323,,31.139654400001746,[np.float64(-0.43666666666666665)],[np.float64(0.10083333333333333)],[1],[0],[0],[0.9235205000004498],['Target'],Participant 4,001,2025-09-30_13h44.30.212,visual search task,,2025.1.1,59.921538737907404,2025-09-30 13h44.47.354168 +0530,
24,0,24,"[np.float64(-0.38166666666666665), np.float64(-0.37666666666666665)]","[np.float64(-0.32666666666666666), np.float64(-0.32666666666666666)]","[1, 1]","[0, 0]","[0, 0]","[0.8583828999981051, 1.2917028999945614]","[None, 'Target']",24,0,24,0,31.177337500004796,,10,31.165607000002638,31.177337500004796,31.177337500004796,0.02573819999815896,32.188217800008715,32.45752940000966,"[np.float64(-0.38166666666666665), np.float64(-0.37666666666666665)]","[np.float64(-0.32666666666666666), np.float64(-0.32666666666666666)]","[1, 1]","[0, 0]","[0, 0]","[0.8583828999981051, 1.2917028999945614]","[None, 'Target']",Participant 4,001,2025-09-30_13h44.30.212,visual search task,,2025.1.1,59.921538737907404,2025-09-30 13h44.47.354168 +0530,
25,0,25,[np.float64(-0.4533333333333333)],[np.float64(0.37166666666666665)],[1],[0],[0],[1.1260497000039322],['Target'],25,0,25,0,32.495983000000706,,10,32.482987700001104,32.495983000000706,32.495983000000706,0.025161099998513237,33.506192500004545,33.60923490001005,[np.float64(-0.4533333333333333)],[np.float64(0.37166666666666665)],[1],[0],[0],[1.1260497000039322],['Target'],Participant 4,001,2025-09-30_13h44.30.212,visual search task,,2025.1.1,59.921538737907404,2025-09-30 13h44.47.354168 +0530,
26,0,26,[np.float64(-0.48333333333333334)],[np.float64(0.44416666666666665)],[1],[0],[0],[0.8399787999951513],['Target'],26,0,26,0,33.64669720000529,,10,33.6346263000014,33.64669720000529,33.64669720000529,0.02512849999766331,,34.474824700009776,[np.float64(-0.48333333333333334)],[np.float64(0.44416666666666665)],[1],[0],[0],[0.8399787999951513],['Target'],Participant 4,001,2025-09-30_13h44.30.212,visual search task,,2025.1.1,59.921538737907404,2025-09-30 13h44.47.354168 +0530,
27,0,27,[np.float64(-0.17083333333333334)],[np.float64(0.03333333333333333)],[1],[0],[0],[0.8056537000084063],['Target'],27,0,27,0,34.49676960000943,,5,34.488151099998504,34.49676960000943,34.49676960000943,0.01310770001146011,,35.29397890000837,[np.float64(-0.17083333333333334)],[np.float64(0.03333333333333333)],[1],[0],[0],[0.8056537000084063],['Target'],Participant 4,001,2025-09-30_13h44.30.212,visual search task,,2025.1.1,59.921538737907404,2025-09-30 13h44.47.354168 +0530,
28,0,28,[np.float64(-0.24916666666666668)],[np.float64(0.3075)],[1],[0],[0],[0.9525539000023855],['Target'],28,0,28,0,35.31762900001195,,5,35.30845120000595,35.31762900001195,35.31762900001195,0.014356200001202524,,36.261207000003196,[np.float64(-0.24916666666666668)],[np.float64(0.3075)],[1],[0],[0],[0.9525539000023855],['Target'],Participant 4,001,2025-09-30_13h44.30.212,visual search task,,2025.1.1,59.921538737907404,2025-09-30 13h44.47.354168 +0530,
29,0,29,[np.float64(-0.08166666666666667)],[np.float64(0.3616666666666667)],[1],[0],[0],[0.9024564999999711],['Target'],29,0,29,0,36.284282699998585,,5,36.27487829999882,36.284282699998585,36.284282699998585,0.013557400001445785,,37.177571699998225,[np.float64(-0.08166666666666667)],[np.float64(0.3616666666666667)],[1],[0],[0],[0.9024564999999711],['Target'],Participant 4,001,2025-09-30_13h44.30.212,visual search task,,2025.1.1,59.921538737907404,2025-09-30 13h44.47.354168 +0530,
30,0,30,[np.float64(0.1225)],[np.float64(0.44333333333333336)],[1],[0],[0],[0.7942236999952001],['Target'],30,0,30,0,37.213603299998795,,10,37.20230060000904,37.213603299998795,37.213603299998795,0.024556399992434308,,37.99673579999944,[np.float64(0.1225)],[np.float64(0.44333333333333336)],[1],[0],[0],[0.7942236999952001],['Target'],Participant 4,001,2025-09-30_13h44.30.212,visual search task,,2025.1.1,59.921538737907404,2025-09-30 13h44.47.354168 +0530,
31,0,31,[np.float64(-0.2866666666666667)],[np.float64(-0.3525)],[1],[0],[0],[1.103255200010608],['Target'],31,0,31,0,38.02118020001217,,5,38.01212330000999,38.02118020001217,38.02118020001217,0.015161000002990477,39.029170300011174,39.115589799999725,[np.float64(-0.2866666666666667)],[np.float64(-0.3525)],[1],[0],[0],[1.103255200010608],['Target'],Participant 4,001,2025-09-30_13h44.30.212,visual search task,,2025.1.1,59.921538737907404,2025-09-30 13h44.47.354168 +0530,
32,0,32,"[np.float64(-0.365), np.float64(-0.3566666666666667)]","[np.float64(-0.14333333333333334), np.float64(-0.14083333333333334)]","[1, 1]","[0, 0]","[0, 0]","[0.7354404000070645, 1.2002771999977995]","[None, 'Target']",32,0,32,0,39.13970670000708,,5,39.13021090000984,39.13970670000708,39.13970670000708,0.014506199993775226,40.14647269999841,40.33071650000056,"[np.float64(-0.365), np.float64(-0.3566666666666667)]","[np.float64(-0.14333333333333334), np.float64(-0.14083333333333334)]","[1, 1]","[0, 0]","[0, 0]","[0.7354404000070645, 1.2002771999977995]","[None, 'Target']",Participant 4,001,2025-09-30_13h44.30.212,visual search task,,2025.1.1,59.921538737907404,2025-09-30 13h44.47.354168 +0530,
33,0,33,[np.float64(-0.3775)],[np.float64(-0.18583333333333332)],[1],[0],[0],[0.6441022000071825],['Target'],33,0,33,0,40.36794190001092,,10,40.35548110000673,40.36794190001092,40.36794190001092,0.024542500003008172,,40.99978009999904,[np.float64(-0.3775)],[np.float64(-0.18583333333333332)],[1],[0],[0],[0.6441022000071825],['Target'],Participant 4,001,2025-09-30_13h44.30.212,visual search task,,2025.1.1,59.921538737907404,2025-09-30 13h44.47.354168 +0530,
34,0,34,[np.float64(-0.25083333333333335)],[np.float64(-0.245)],[1],[0],[0],[0.9029059000022244],['Target'],34,0,34,0,41.023655000011786,,5,41.01488880001125,41.023655000011786,41.023655000011786,0.014893600004143082,,41.91799919999903,[np.float64(-0.25083333333333335)],[np.float64(-0.245)],[1],[0],[0],[0.9029059000022244],['Target'],Participant 4,001,2025-09-30_13h44.30.212,visual search task,,2025.1.1,59.921538737907404,2025-09-30 13h44.47.354168 +0530,
35,0,35,[np.float64(0.2675)],[np.float64(-0.16166666666666665)],[1],[0],[0],[1.524348299994017],['Target'],35,0,35,0,41.95722460000252,,10,41.945255099999486,41.95722460000252,41.95722460000252,0.027128300003823824,42.9667322000023,43.46981720000622,[np.float64(0.2675)],[np.float64(-0.16166666666666665)],[1],[0],[0],[1.524348299994017],['Target'],Participant 4,001,2025-09-30_13h44.30.212,visual search task,,2025.1.1,59.921538737907404,2025-09-30 13h44.47.354168 +0530,
36,0,36,[np.float64(0.26666666666666666)],[np.float64(-0.14666666666666667)],[1],[0],[0],[0.805948699999135],['Target'],36,0,36,0,43.50930180000432,,10,43.497295500012115,43.50930180000432,43.50930180000432,0.02723570000671316,,44.3034209000034,[np.float64(0.26666666666666666)],[np.float64(-0.14666666666666667)],[1],[0],[0],[0.805948699999135],['Target'],Participant 4,001,2025-09-30_13h44.30.212,visual search task,,2025.1.1,59.921538737907404,2025-09-30 13h44.47.354168 +0530,
37,0,37,[np.float64(0.03916666666666667)],[np.float64(0.024166666666666666)],[1],[0],[0],[1.5214273000019602],['Target'],37,0,37,0,44.32608710000932,,5,44.317130800001905,44.32608710000932,44.32608710000932,0.013526100010494702,45.335627300009946,45.838762700004736,[np.float64(0.03916666666666667)],[np.float64(0.024166666666666666)],[1],[0],[0],[1.5214273000019602],['Target'],Participant 4,001,2025-09-30_13h44.30.212,visual search task,,2025.1.1,59.921538737907404,2025-09-30 13h44.47.354168 +0530,
38,0,38,[np.float64(-0.4766666666666667)],[np.float64(-0.4025)],[1],[0],[0],[1.3206626000028336],['Target'],38,0,38,0,45.86197280000488,,5,45.85261110001011,45.86197280000488,45.86197280000488,0.01365079999959562,46.870327700002235,47.17346630000975,[np.float64(-0.4766666666666667)],[np.float64(-0.4025)],[1],[0],[0],[1.3206626000028336],['Target'],Participant 4,001,2025-09-30_13h44.30.212,visual search task,,2025.1.1,59.921538737907404,2025-09-30 13h44.47.354168 +0530,
39,0,39,[np.float64(-0.08416666666666667)],[np.float64(0.2225)],[1],[0],[0],[1.2223056999937398],['Target'],39,0,39,0,47.21481320000021,,10,47.20246179999958,47.21481320000021,47.21481320000021,0.028745100004016422,48.22261670000444,48.42496070000925,[np.float64(-0.08416666666666667)],[np.float64(0.2225)],[1],[0],[0],[1.2223056999937398],['Target'],Participant 4,001,2025-09-30_13h44.30.212,visual search task,,2025.1.1,59.921538737907404,2025-09-30 13h44.47.354168 +0530,
40,0,40,[np.float64(-0.3175)],[np.float64(-0.059166666666666666)],[1],[0],[0],[0.8627553999976953],['Target'],40,0,40,0,48.46038300001237,,10,48.44731519999914,48.46038300001237,48.46038300001237,0.022200199993676506,,49.31028580000566,[np.float64(-0.3175)],[np.float64(-0.059166666666666666)],[1],[0],[0],[0.8627553999976953],['Target'],Participant 4,001,2025-09-30_13h44.30.212,visual search task,,2025.1.1,59.921538737907404,2025-09-30 13h44.47.354168 +0530,
41,0,41,"[np.float64(-0.059166666666666666), np.float64(-0.050833333333333335)]","[np.float64(-0.12833333333333333), np.float64(-0.16166666666666665)]","[1, 1]","[0, 0]","[0, 0]","[0.9362800999952015, 1.417820999995456]","[None, 'Target']",41,0,41,0,49.33465020000585,,5,49.32548530001077,49.33465020000585,49.33465020000585,0.014992700002039783,50.34092810000584,50.7434951000032,"[np.float64(-0.059166666666666666), np.float64(-0.050833333333333335)]","[np.float64(-0.12833333333333333), np.float64(-0.16166666666666665)]","[1, 1]","[0, 0]","[0, 0]","[0.9362800999952015, 1.417820999995456]","[None, 'Target']",Participant 4,001,2025-09-30_13h44.30.212,visual search task,,2025.1.1,59.921538737907404,2025-09-30 13h44.47.354168 +0530,
42,0,42,[np.float64(0.3516666666666667)],[np.float64(0.4766666666666667)],[1],[0],[0],[1.018226300002425],['Target'],42,0,42,0,50.76843280000321,,5,50.759461499998,50.76843280000321,50.76843280000321,0.015823199995793402,51.77595160000783,51.777878500011866,[np.float64(0.3516666666666667)],[np.float64(0.4766666666666667)],[1],[0],[0],[1.018226300002425],['Target'],Participant 4,001,2025-09-30_13h44.30.212,visual search task,,2025.1.1,59.921538737907404,2025-09-30 13h44.47.354168 +0530,
43,0,43,"[np.float64(-0.4033333333333333), np.float64(-0.4241666666666667)]","[np.float64(0.18416666666666667), np.float64(0.18833333333333332)]","[1, 1]","[0, 0]","[0, 0]","[0.9604095999966376, 1.3922731999919051]","[None, 'Target']",43,0,43,0,51.81698600000527,,10,51.802695300008054,51.81698600000527,51.81698600000527,0.024665000004461035,52.827408500001184,53.19519220000075,"[np.float64(-0.4033333333333333), np.float64(-0.4241666666666667)]","[np.float64(0.18416666666666667), np.float64(0.18833333333333332)]","[1, 1]","[0, 0]","[0, 0]","[0.9604095999966376, 1.3922731999919051]","[None, 'Target']",Participant 4,001,2025-09-30_13h44.30.212,visual search task,,2025.1.1,59.921538737907404,2025-09-30 13h44.47.354168 +0530,
44,0,44,[np.float64(-0.13666666666666666)],[np.float64(0.39416666666666667)],[1],[0],[0],[0.9060240000108024],['Target'],44,0,44,0,53.21735930000432,,5,53.20943139999872,53.21735930000432,53.21735930000432,0.013965700010885485,,54.115627400009544,[np.float64(-0.13666666666666666)],[np.float64(0.39416666666666667)],[1],[0],[0],[0.9060240000108024],['Target'],Participant 4,001,2025-09-30_13h44.30.212,visual search task,,2025.1.1,59.921538737907404,2025-09-30 13h44.47.354168 +0530,
45,0,45,[np.float64(-0.0375)],[np.float64(-0.05416666666666667)],[1],[0],[0],[1.233407099993201],['Target'],45,0,45,0,54.140481499998714,,5,54.13052340000286,54.140481499998714,54.140481499998714,0.014737199991941452,55.14642930000264,55.36415800001123,[np.float64(-0.0375)],[np.float64(-0.05416666666666667)],[1],[0],[0],[1.233407099993201],['Target'],Participant 4,001,2025-09-30_13h44.30.212,visual search task,,2025.1.1,59.921538737907404,2025-09-30 13h44.47.354168 +0530,
46,0,46,[np.float64(-0.5025)],[np.float64(0.4066666666666667)],[1],[0],[0],[0.855631500002346],['Target'],46,0,46,0,55.38508340000408,,5,55.37694250000641,55.38508340000408,55.38508340000408,0.01264620000438299,,56.2327396000037,[np.float64(-0.5025)],[np.float64(0.4066666666666667)],[1],[0],[0],[0.855631500002346],['Target'],Participant 4,001,2025-09-30_13h44.30.212,visual search task,,2025.1.1,59.921538737907404,2025-09-30 13h44.47.354168 +0530,
47,0,47,[np.float64(-0.035833333333333335)],[np.float64(0.1)],[1],[0],[0],[1.0720389999914914],['Target'],47,0,47,0,56.25611810000555,,5,56.24663340000552,56.25611810000555,56.25611810000555,0.013768100005108863,57.26665289999801,57.31888630001049,[np.float64(-0.035833333333333335)],[np.float64(0.1)],[1],[0],[0],[1.0720389999914914],['Target'],Participant 4,001,2025-09-30_13h44.30.212,visual search task,,2025.1.1,59.921538737907404,2025-09-30 13h44.47.354168 +0530,
48,0,48,[np.float64(0.31083333333333335)],[np.float64(-0.33166666666666667)],[1],[0],[0],[1.5009821000130614],['Target'],48,0,48,0,57.34196190000512,,5,57.33373030000075,57.34196190000512,57.34196190000512,0.01464710000436753,58.350296000004164,58.83492130000377,[np.float64(0.31083333333333335)],[np.float64(-0.33166666666666667)],[1],[0],[0],[1.5009821000130614],['Target'],Participant 4,001,2025-09-30_13h44.30.212,visual search task,,2025.1.1,59.921538737907404,2025-09-30 13h44.47.354168 +0530,
49,0,49,[np.float64(-0.24166666666666667)],[np.float64(0.0033333333333333335)],[1],[0],[0],[0.808773900003871],['Target'],49,0,49,0,58.873911500006216,,10,58.86220500001218,58.873911500006216,58.873911500006216,0.027092399992397986,,59.67115829999966,[np.float64(-0.24166666666666667)],[np.float64(0.0033333333333333335)],[1],[0],[0],[0.808773900003871],['Target'],Participant 4,001,2025-09-30_13h44.30.212,visual search task,,2025.1.1,59.921538737907404,2025-09-30 13h44.47.354168 +0530,
50,0,50,[np.float64(-0.2)],[np.float64(0.37)],[1],[0],[0],[0.7864036999962991],['Target'],50,0,50,0,59.694315100001404,,5,59.68548310000915,59.694315100001404,59.694315100001404,0.014184600004227832,,60.47210110000742,[np.float64(-0.2)],[np.float64(0.37)],[1],[0],[0],[0.7864036999962991],['Target'],Participant 4,001,2025-09-30_13h44.30.212,visual search task,,2025.1.1,59.921538737907404,2025-09-30 13h44.47.354168 +0530,
51,0,51,[np.float64(-0.3883333333333333)],[np.float64(-0.2683333333333333)],[1],[0],[0],[0.9514548000006471],['Target'],51,0,51,0,60.497344400006114,,5,60.487447600011365,60.497344400006114,60.497344400006114,0.015058499993756413,,61.43913640000392,[np.float64(-0.3883333333333333)],[np.float64(-0.2683333333333333)],[1],[0],[0],[0.9514548000006471],['Target'],Participant 4,001,2025-09-30_13h44.30.212,visual search task,,2025.1.1,59.921538737907404,2025-09-30 13h44.47.354168 +0530,
52,0,52,"[np.float64(-0.1625), np.float64(-0.15333333333333332), np.float64(-0.13333333333333333)]","[np.float64(0.38416666666666666), np.float64(0.385), np.float64(0.3933333333333333)]","[1, 1, 1]","[0, 0, 0]","[0, 0, 0]","[0.9367311999958474, 1.4545642999873962, 2.1715308999991976]","[None, None, 'Target']",52,0,52,0,61.46184670001094,,5,61.452930400002515,61.46184670001094,61.46184670001094,0.013581599996541627,62.47158150000905,63.62465670000529,"[np.float64(-0.1625), np.float64(-0.15333333333333332), np.float64(-0.13333333333333333)]","[np.float64(0.38416666666666666), np.float64(0.385), np.float64(0.3933333333333333)]","[1, 1, 1]","[0, 0, 0]","[0, 0, 0]","[0.9367311999958474, 1.4545642999873962, 2.1715308999991976]","[None, None, 'Target']",Participant 4,001,2025-09-30_13h44.30.212,visual search task,,2025.1.1,59.921538737907404,2025-09-30 13h44.47.354168 +0530,
53,0,53,[np.float64(0.24666666666666667)],[np.float64(-0.06833333333333333)],[1],[0],[0],[1.1353263999917544],['Target'],53,0,53,0,63.651007500011474,,5,63.64097860000038,63.651007500011474,63.651007500011474,0.016094800012069754,64.65688770000997,64.77652130000934,[np.float64(0.24666666666666667)],[np.float64(-0.06833333333333333)],[1],[0],[0],[1.1353263999917544],['Target'],Participant 4,001,2025-09-30_13h44.30.212,visual search task,,2025.1.1,59.921538737907404,2025-09-30 13h44.47.354168 +0530,
54,0,54,[np.float64(-0.4266666666666667)],[np.float64(0.20083333333333334)],[1],[0],[0],[0.9372627999982797],['Target'],54,0,54,0,64.79985809999926,,5,64.79141900000104,64.79985809999926,64.79985809999926,0.014717199999722652,,65.72890080000798,[np.float64(-0.4266666666666667)],[np.float64(0.20083333333333334)],[1],[0],[0],[0.9372627999982797],['Target'],Participant 4,001,2025-09-30_13h44.30.212,visual search task,,2025.1.1,59.921538737907404,2025-09-30 13h44.47.354168 +0530,
55,0,55,"[np.float64(0.4508333333333333), np.float64(0.4508333333333333), np.float64(0.4583333333333333)]","[np.float64(-0.30583333333333335), np.float64(-0.315), np.float64(-0.33166666666666667)]","[1, 1, 1]","[0, 0, 0]","[0, 0, 0]","[1.5086062000045786, 1.9403127999976277, 2.426110400003381]","[None, None, 'Target']",55,0,55,0,65.76594310000655,,10,65.75387080000655,65.76594310000655,65.76594310000655,0.024809199996525422,66.77610250000726,68.18019700000877,"[np.float64(0.4508333333333333), np.float64(0.4508333333333333), np.float64(0.4583333333333333)]","[np.float64(-0.30583333333333335), np.float64(-0.315), np.float64(-0.33166666666666667)]","[1, 1, 1]","[0, 0, 0]","[0, 0, 0]","[1.5086062000045786, 1.9403127999976277, 2.426110400003381]","[None, None, 'Target']",Participant 4,001,2025-09-30_13h44.30.212,visual search task,,2025.1.1,59.921538737907404,2025-09-30 13h44.47.354168 +0530,
56,0,56,[np.float64(0.44666666666666666)],[np.float64(-0.085)],[1],[0],[0],[0.7183401999936905],['Target'],56,0,56,0,68.20261269999901,,5,68.19454399999813,68.20261269999901,68.20261269999901,0.014112499993643723,,68.91318420000607,[np.float64(0.44666666666666666)],[np.float64(-0.085)],[1],[0],[0],[0.7183401999936905],['Target'],Participant 4,001,2025-09-30_13h44.30.212,visual search task,,2025.1.1,59.921538737907404,2025-09-30 13h44.47.354168 +0530,
57,0,57,[np.float64(0.0225)],[np.float64(0.22916666666666666)],[1],[0],[0],[0.754510400001891],['Target'],57,0,57,0,68.93604770000093,,5,68.92718470000545,68.93604770000093,68.93604770000093,0.01383370000985451,,69.68190910000703,[np.float64(0.0225)],[np.float64(0.22916666666666666)],[1],[0],[0],[0.754510400001891],['Target'],Participant 4,001,2025-09-30_13h44.30.212,visual search task,,2025.1.1,59.921538737907404,2025-09-30 13h44.47.354168 +0530,
58,0,58,[np.float64(-0.3858333333333333)],[np.float64(-0.20583333333333334)],[1],[0],[0],[0.9029334000078961],['Target'],58,0,58,0,69.70522390000406,,5,69.69615030000568,69.70522390000406,69.70522390000406,0.01403740000387188,,70.59928600001149,[np.float64(-0.3858333333333333)],[np.float64(-0.20583333333333334)],[1],[0],[0],[0.9029334000078961],['Target'],Participant 4,001,2025-09-30_13h44.30.212,visual search task,,2025.1.1,59.921538737907404,2025-09-30 13h44.47.354168 +0530,
59,0,59,[np.float64(-0.17333333333333334)],[np.float64(-0.12833333333333333)],[1],[0],[0],[0.7560751999990316],['Target'],59,0,59,0,70.63777520001167,,10,70.62641840000288,70.63777520001167,70.63777520001167,0.027002300004824065,,71.38271220000752,[np.float64(-0.17333333333333334)],[np.float64(-0.12833333333333333)],[1],[0],[0],[0.7560751999990316],['Target'],Participant 4,001,2025-09-30_13h44.30.212,visual search task,,2025.1.1,59.921538737907404,2025-09-30 13h44.47.354168 +0530,
60,0,60,[np.float64(0.008333333333333333)],[np.float64(-0.095)],[1],[0],[0],[2.2268173999909777],['Target'],60,0,60,0,71.41896989999805,,10,71.40761570000905,71.41896989999805,71.41896989999805,0.024689900004887022,72.4322644000058,73.63463440000487,[np.float64(0.008333333333333333)],[np.float64(-0.095)],[1],[0],[0],[2.2268173999909777],['Target'],Participant 4,001,2025-09-30_13h44.30.212,visual search task,,2025.1.1,59.921538737907404,2025-09-30 13h44.47.354168 +0530,
61,0,61,[np.float64(0.3983333333333333)],[np.float64(0.11083333333333334)],[1],[0],[0],[1.0114977000048384],['Target'],61,0,61,0,73.67026480000641,,10,73.65876000000571,73.67026480000641,73.67026480000641,0.023906000002170913,74.70943850000913,74.67041420000896,[np.float64(0.3983333333333333)],[np.float64(0.11083333333333334)],[1],[0],[0],[1.0114977000048384],['Target'],Participant 4,001,2025-09-30_13h44.30.212,visual search task,,2025.1.1,59.921538737907404,2025-09-30 13h44.47.354168 +0530,
62,0,62,[np.float64(0.015)],[np.float64(0.23916666666666667)],[1],[0],[0],[0.70686520000163],['Target'],62,0,62,0,74.70943850000913,,10,74.69776850000198,74.70943850000913,74.70943850000913,0.02717490000941325,,75.40480870001193,[np.float64(0.015)],[np.float64(0.23916666666666667)],[1],[0],[0],[0.70686520000163],['Target'],Participant 4,001,2025-09-30_13h44.30.212,visual search task,,2025.1.1,59.921538737907404,2025-09-30 13h44.47.354168 +0530,
63,0,63,[np.float64(-0.20666666666666667)],[np.float64(0.02666666666666667)],[1],[0],[0],[0.7524598000018159],['Target'],63,0,63,0,75.42868150000868,,5,75.4198436000006,75.42868150000868,75.42868150000868,0.01484060000802856,,76.17253060000075,[np.float64(-0.20666666666666667)],[np.float64(0.02666666666666667)],[1],[0],[0],[0.7524598000018159],['Target'],Participant 4,001,2025-09-30_13h44.30.212,visual search task,,2025.1.1,59.921538737907404,2025-09-30 13h44.47.354168 +0530,
64,0,64,[np.float64(-0.21333333333333335)],[np.float64(-0.01)],[1],[0],[0],[0.5872150000068359],['Target'],64,0,64,0,76.19431250001071,,5,76.18560409999918,76.19431250001071,76.19431250001071,0.01290030000382103,,76.77300010000181,[np.float64(-0.21333333333333335)],[np.float64(-0.01)],[1],[0],[0],[0.5872150000068359],['Target'],Participant 4,001,2025-09-30_13h44.30.212,visual search task,,2025.1.1,59.921538737907404,2025-09-30 13h44.47.354168 +0530,
65,0,65,[np.float64(-0.25166666666666665)],[np.float64(-0.058333333333333334)],[1],[0],[0],[0.6918430000077933],['Target'],65,0,65,0,76.8095644999994,,10,76.79783360000874,76.8095644999994,76.8095644999994,0.024692299994057976,,77.48987679999846,[np.float64(-0.25166666666666665)],[np.float64(-0.058333333333333334)],[1],[0],[0],[0.6918430000077933],['Target'],Participant 4,001,2025-09-30_13h44.30.212,visual search task,,2025.1.1,59.921538737907404,2025-09-30 13h44.47.354168 +0530,
66,0,66,[np.float64(0.485)],[np.float64(-0.3616666666666667)],[1],[0],[0],[1.0216403000085847],['Target'],66,0,66,0,77.51217280000856,,5,77.5039364000113,77.51217280000856,77.51217280000856,0.013856499994290061,78.52228710000054,78.5258482000063,[np.float64(0.485)],[np.float64(-0.3616666666666667)],[1],[0],[0],[1.0216403000085847],['Target'],Participant 4,001,2025-09-30_13h44.30.212,visual search task,,2025.1.1,59.921538737907404,2025-09-30 13h44.47.354168 +0530,
67,0,67,"[np.float64(-0.4083333333333333), np.float64(-0.24166666666666667)]","[np.float64(-0.03833333333333333), np.float64(0.4666666666666667)]","[1, 1]","[0, 0]","[0, 0]","[0.9031319000059739, 2.0206441000045743]","[None, 'Target']",67,0,67,0,78.54757809999865,,5,78.53912790000322,78.54757809999865,78.54757809999865,0.013123099997756071,79.55658160000166,80.5599751000118,"[np.float64(-0.4083333333333333), np.float64(-0.24166666666666667)]","[np.float64(-0.03833333333333333), np.float64(0.4666666666666667)]","[1, 1]","[0, 0]","[0, 0]","[0.9031319000059739, 2.0206441000045743]","[None, 'Target']",Participant 4,001,2025-09-30_13h44.30.212,visual search task,,2025.1.1,59.921538737907404,2025-09-30 13h44.47.354168 +0530,
68,0,68,[np.float64(-0.16833333333333333)],[np.float64(0.021666666666666667)],[1],[0],[0],[0.9750910000002477],['Target'],68,0,68,0,80.5984513000003,,10,80.58593840000685,80.5984513000003,80.5984513000003,0.025742400001036003,,81.56121960000019,[np.float64(-0.16833333333333333)],[np.float64(0.021666666666666667)],[1],[0],[0],[0.9750910000002477],['Target'],Participant 4,001,2025-09-30_13h44.30.212,visual search task,,2025.1.1,59.921538737907404,2025-09-30 13h44.47.354168 +0530,
69,0,69,[np.float64(-0.058333333333333334)],[np.float64(-0.4675)],[1],[0],[0],[1.0077220000093803],['Target'],69,0,69,0,81.60045340000943,,10,81.58808240000508,81.60045340000943,81.60045340000943,0.02665759999945294,82.63718489999883,82.59598290000577,[np.float64(-0.058333333333333334)],[np.float64(-0.4675)],[1],[0],[0],[1.0077220000093803],['Target'],Participant 4,001,2025-09-30_13h44.30.212,visual search task,,2025.1.1,59.921538737907404,2025-09-30 13h44.47.354168 +0530,
70,0,70,[np.float64(0.4683333333333333)],[np.float64(-0.12416666666666666)],[1],[0],[0],[1.3065104999986943],['Target'],70,0,70,0,82.63718489999883,,10,82.62460300000384,82.63718489999883,82.63718489999883,0.028408000012859702,83.6444702000008,83.93130409999867,[np.float64(0.4683333333333333)],[np.float64(-0.12416666666666666)],[1],[0],[0],[1.3065104999986943],['Target'],Participant 4,001,2025-09-30_13h44.30.212,visual search task,,2025.1.1,59.921538737907404,2025-09-30 13h44.47.354168 +0530,
71,0,71,[np.float64(0.3616666666666667)],[np.float64(0.12333333333333334)],[1],[0],[0],[0.7689593999966746],['Target'],71,0,71,0,83.95648930000607,,5,83.94594540000253,83.95648930000607,83.95648930000607,0.014465399988694116,,84.71519290001015,[np.float64(0.3616666666666667)],[np.float64(0.12333333333333334)],[1],[0],[0],[0.7689593999966746],['Target'],Participant 4,001,2025-09-30_13h44.30.212,visual search task,,2025.1.1,59.921538737907404,2025-09-30 13h44.47.354168 +0530,
72,0,72,"[np.float64(-0.010833333333333334), np.float64(0.015), np.float64(0.035)]","[np.float64(-0.47), np.float64(-0.42333333333333334), np.float64(-0.42583333333333334)]","[1, 1, 1]","[0, 0, 0]","[0, 0, 0]","[1.137387899987516, 1.6366153999988455, 2.1375746999983676]","[None, None, 'Target']",72,0,72,0,84.73863060001167,,5,84.72896390000824,84.73863060001167,84.73863060001167,0.013587399997049943,85.74669460000587,86.86672050000925,"[np.float64(-0.010833333333333334), np.float64(0.015), np.float64(0.035)]","[np.float64(-0.47), np.float64(-0.42333333333333334), np.float64(-0.42583333333333334)]","[1, 1, 1]","[0, 0, 0]","[0, 0, 0]","[1.137387899987516, 1.6366153999988455, 2.1375746999983676]","[None, None, 'Target']",Participant 4,001,2025-09-30_13h44.30.212,visual search task,,2025.1.1,59.921538737907404,2025-09-30 13h44.47.354168 +0530,
73,0,73,[np.float64(0.3908333333333333)],[np.float64(0.4375)],[1],[0],[0],[1.3088846000027843],['Target'],73,0,73,0,86.90922030000365,,10,86.89502830000129,86.90922030000365,86.90922030000365,0.028082199991331436,87.91603069999837,88.20414570000139,[np.float64(0.3908333333333333)],[np.float64(0.4375)],[1],[0],[0],[1.3088846000027843],['Target'],Participant 4,001,2025-09-30_13h44.30.212,visual search task,,2025.1.1,59.921538737907404,2025-09-30 13h44.47.354168 +0530,
74,0,74,"[np.float64(-0.40166666666666667), np.float64(-0.4041666666666667), np.float64(-0.4225)]","[np.float64(0.38416666666666666), np.float64(0.38916666666666666), np.float64(0.4041666666666667)]","[1, 1, 1]","[0, 0, 0]","[0, 0, 0]","[0.90116969999508, 1.4188523999910103, 1.9852075999951921]","[None, None, 'Target']",74,0,74,0,88.22738970001228,,5,88.21845070000563,88.22738970001228,88.22738970001228,0.014077300002099946,89.23411869999836,90.20386639999924,"[np.float64(-0.40166666666666667), np.float64(-0.4041666666666667), np.float64(-0.4225)]","[np.float64(0.38416666666666666), np.float64(0.38916666666666666), np.float64(0.4041666666666667)]","[1, 1, 1]","[0, 0, 0]","[0, 0, 0]","[0.90116969999508, 1.4188523999910103, 1.9852075999951921]","[None, None, 'Target']",Participant 4,001,2025-09-30_13h44.30.212,visual search task,,2025.1.1,59.921538737907404,2025-09-30 13h44.47.354168 +0530,
75,0,75,[np.float64(0.305)],[np.float64(-0.21583333333333332)],[1],[0],[0],[0.9871376000082819],['Target'],75,0,75,0,90.22771490000014,,5,90.21801219999907,90.22771490000014,90.22771490000014,0.013920800003688782,,91.20534380000026,[np.float64(0.305)],[np.float64(-0.21583333333333332)],[1],[0],[0],[0.9871376000082819],['Target'],Participant 4,001,2025-09-30_13h44.30.212,visual search task,,2025.1.1,59.921538737907404,2025-09-30 13h44.47.354168 +0530,
76,0,76,[np.float64(-0.3541666666666667)],[np.float64(0.36666666666666664)],[1],[0],[0],[0.8699061999941478],['Target'],76,0,76,0,91.22871060000034,,5,91.21891290000349,91.22871060000034,91.22871060000034,0.01343889998679515,,92.08904010000697,[np.float64(-0.3541666666666667)],[np.float64(0.36666666666666664)],[1],[0],[0],[0.8699061999941478],['Target'],Participant 4,001,2025-09-30_13h44.30.212,visual search task,,2025.1.1,59.921538737907404,2025-09-30 13h44.47.354168 +0530,
77,0,77,"[np.float64(0.22), np.float64(0.22), np.float64(0.22), np.float64(0.21416666666666667)]","[np.float64(-0.04416666666666667), np.float64(-0.035), np.float64(-0.035), np.float64(0.0016666666666666668)]","[1, 1, 1, 1]","[0, 0, 0, 0]","[0, 0, 0, 0]","[1.006048199997167, 1.4722204999998212, 1.9071502000006149, 2.673489199994947]","[None, None, None, 'Target']",77,0,77,0,92.10987310000928,,5,92.10199809999904,92.10987310000928,92.10987310000928,0.012773899987223558,93.1212904999993,94.77569239999866,"[np.float64(0.22), np.float64(0.22), np.float64(0.22), np.float64(0.21416666666666667)]","[np.float64(-0.04416666666666667), np.float64(-0.035), np.float64(-0.035), np.float64(0.0016666666666666668)]","[1, 1, 1, 1]","[0, 0, 0, 0]","[0, 0, 0, 0]","[1.006048199997167, 1.4722204999998212, 1.9071502000006149, 2.673489199994947]","[None, None, None, 'Target']",Participant 4,001,2025-09-30_13h44.30.212,visual search task,,2025.1.1,59.921538737907404,2025-09-30 13h44.47.354168 +0530,
78,0,78,"[np.float64(0.36666666666666664), np.float64(0.4116666666666667), np.float64(0.39916666666666667)]","[np.float64(0.29333333333333333), np.float64(0.29333333333333333), np.float64(0.3)]","[1, 1, 1]","[0, 0, 0]","[0, 0, 0]","[0.9872303000011016, 1.65403150000202, 2.1540924000000814]","[None, None, 'Target']",78,0,78,0,94.79831569999806,,5,94.79036100000667,94.79831569999806,94.79831569999806,0.014418799997656606,95.80803320000996,96.94462249999924,"[np.float64(0.36666666666666664), np.float64(0.4116666666666667), np.float64(0.39916666666666667)]","[np.float64(0.29333333333333333), np.float64(0.29333333333333333), np.float64(0.3)]","[1, 1, 1]","[0, 0, 0]","[0, 0, 0]","[0.9872303000011016, 1.65403150000202, 2.1540924000000814]","[None, None, 'Target']",Participant 4,001,2025-09-30_13h44.30.212,visual search task,,2025.1.1,59.921538737907404,2025-09-30 13h44.47.354168 +0530,
79,0,79,"[np.float64(0.45166666666666666), np.float64(0.4575)]","[np.float64(0.32166666666666666), np.float64(0.32)]","[1, 1]","[0, 0]","[0, 0]","[0.8700620999879902, 1.3523007999901893]","[None, 'Target']",79,0,79,0,96.96757610001077,,5,96.95872090000194,96.96757610001077,96.96757610001077,0.013931900000898167,97.97770329999912,98.3112426000007,"[np.float64(0.45166666666666666), np.float64(0.4575)]","[np.float64(0.32166666666666666), np.float64(0.32)]","[1, 1]","[0, 0]","[0, 0]","[0.8700620999879902, 1.3523007999901893]","[None, 'Target']",Participant 4,001,2025-09-30_13h44.30.212,visual search task,,2025.1.1,59.921538737907404,2025-09-30 13h44.47.354168 +0530,
80,0,80,[np.float64(-0.165)],[np.float64(-0.32916666666666666)],[1],[0],[0],[1.2622604999924079],['Target'],80,0,80,0,98.34880310000153,,10,98.33580460000667,98.34880310000153,98.34880310000153,0.02436630000011064,99.36195530000259,99.59825229999842,[np.float64(-0.165)],[np.float64(-0.32916666666666666)],[1],[0],[0],[1.2622604999924079],['Target'],Participant 4,001,2025-09-30_13h44.30.212,visual search task,,2025.1.1,59.921538737907404,2025-09-30 13h44.47.354168 +0530,
81,0,81,[np.float64(-0.10916666666666666)],[np.float64(-0.32083333333333336)],[1],[0],[0],[0.8232809000037378],['Target'],81,0,81,0,99.63757440001064,,10,99.62577189999865,99.63757440001064,99.63757440001064,0.02719730000535492,,100.44923950001248,[np.float64(-0.10916666666666666)],[np.float64(-0.32083333333333336)],[1],[0],[0],[0.8232809000037378],['Target'],Participant 4,001,2025-09-30_13h44.30.212,visual search task,,2025.1.1,59.921538737907404,2025-09-30 13h44.47.354168 +0530,
82,0,82,[np.float64(-0.25416666666666665)],[np.float64(0.38)],[1],[0],[0],[1.0030261999927461],['Target'],82,0,82,0,100.47277820001182,,5,100.46400380000705,100.47277820001182,100.47277820001182,0.014571399995475076,101.50426820000575,101.46725790000346,[np.float64(-0.25416666666666665)],[np.float64(0.38)],[1],[0],[0],[1.0030261999927461],['Target'],Participant 4,001,2025-09-30_13h44.30.212,visual search task,,2025.1.1,59.921538737907404,2025-09-30 13h44.47.354168 +0530,
83,0,83,[np.float64(0.26416666666666666)],[np.float64(-0.2125)],[1],[0],[0],[1.0736867999949027],['Target'],83,0,83,0,101.50426820000575,,10,101.49298460000136,101.50426820000575,101.50426820000575,0.02549899999576155,102.5153452000086,102.56693030000315,[np.float64(0.26416666666666666)],[np.float64(-0.2125)],[1],[0],[0],[1.0736867999949027],['Target'],Participant 4,001,2025-09-30_13h44.30.212,visual search task,,2025.1.1,59.921538737907404,2025-09-30 13h44.47.354168 +0530,
84,0,84,[np.float64(0.050833333333333335)],[np.float64(0.4633333333333333)],[1],[0],[0],[1.0705386999907205],['Target'],84,0,84,0,102.59079000000202,,5,102.58185100000992,102.59079000000202,102.59079000000202,0.014610099999117665,103.59998830000404,103.65261699999974,[np.float64(0.050833333333333335)],[np.float64(0.4633333333333333)],[1],[0],[0],[1.0705386999907205],['Target'],Participant 4,001,2025-09-30_13h44.30.212,visual search task,,2025.1.1,59.921538737907404,2025-09-30 13h44.47.354168 +0530,
85,0,85,[np.float64(-0.03166666666666667)],[np.float64(0.3625)],[1],[0],[0],[0.9697957000025781],['Target'],85,0,85,0,103.6772270000074,,5,103.66765490001126,103.6772270000074,103.6772270000074,0.014814000009209849,,104.63764980000269,[np.float64(-0.03166666666666667)],[np.float64(0.3625)],[1],[0],[0],[0.9697957000025781],['Target'],Participant 4,001,2025-09-30_13h44.30.212,visual search task,,2025.1.1,59.921538737907404,2025-09-30 13h44.47.354168 +0530,
86,0,86,[np.float64(0.39916666666666667)],[np.float64(0.0075)],[1],[0],[0],[0.9096914999972796],['Target'],86,0,86,0,104.67547650000779,,10,104.6622073000035,104.67547650000779,104.67547650000779,0.024447100004181266,,105.57210780000605,[np.float64(0.39916666666666667)],[np.float64(0.0075)],[1],[0],[0],[0.9096914999972796],['Target'],Participant 4,001,2025-09-30_13h44.30.212,visual search task,,2025.1.1,59.921538737907404,2025-09-30 13h44.47.354168 +0530,
87,0,87,"[np.float64(-0.3258333333333333), np.float64(-0.3416666666666667)]","[np.float64(-0.43166666666666664), np.float64(-0.42583333333333334)]","[1, 1]","[0, 0]","[0, 0]","[1.2590274999965914, 1.808212599993567]","[None, 'Target']",87,0,87,0,105.6092420000059,,10,105.59759100001247,105.6092420000059,105.6092420000059,0.025203199998941272,106.61993970000185,107.40598060000048,"[np.float64(-0.3258333333333333), np.float64(-0.3416666666666667)]","[np.float64(-0.43166666666666664), np.float64(-0.42583333333333334)]","[1, 1]","[0, 0]","[0, 0]","[1.2590274999965914, 1.808212599993567]","[None, 'Target']",Participant 4,001,2025-09-30_13h44.30.212,visual search task,,2025.1.1,59.921538737907404,2025-09-30 13h44.47.354168 +0530,
88,0,88,[np.float64(-0.1275)],[np.float64(0.37833333333333335)],[1],[0],[0],[1.2591448000021046],['Target'],88,0,88,0,107.44427390000783,,10,107.43230100000801,107.44427390000783,107.44427390000783,0.026081000003614463,108.45496760000242,108.69163200000185,[np.float64(-0.1275)],[np.float64(0.37833333333333335)],[1],[0],[0],[1.2591448000021046],['Target'],Participant 4,001,2025-09-30_13h44.30.212,visual search task,,2025.1.1,59.921538737907404,2025-09-30 13h44.47.354168 +0530,
89,0,89,[np.float64(0.485)],[np.float64(-0.455)],[1],[0],[0],[1.527104100008728],['Target'],89,0,89,0,108.72819360000722,,10,108.71571119999862,108.72819360000722,108.72819360000722,0.023876200008089654,109.74055300001055,110.24301840001135,[np.float64(0.485)],[np.float64(-0.455)],[1],[0],[0],[1.527104100008728],['Target'],Participant 4,001,2025-09-30_13h44.30.212,visual search task,,2025.1.1,59.921538737907404,2025-09-30 13h44.47.354168 +0530,
90,0,90,[np.float64(0.31333333333333335)],[np.float64(-0.0033333333333333335)],[1],[0],[0],[1.0525931000011042],['Target'],90,0,90,0,110.26669450000918,,5,110.2576490000065,110.26669450000918,110.26669450000918,0.014432900003157556,111.27491990000999,111.31044939999992,[np.float64(0.31333333333333335)],[np.float64(-0.0033333333333333335)],[1],[0],[0],[1.0525931000011042],['Target'],Participant 4,001,2025-09-30_13h44.30.212,visual search task,,2025.1.1,59.921538737907404,2025-09-30 13h44.47.354168 +0530,
91,0,91,[np.float64(0.3725)],[np.float64(0.15833333333333333)],[1],[0],[0],[0.8743580000009388],['Target'],91,0,91,0,111.35085620000609,,10,111.33743210000102,111.35085620000609,111.35085620000609,0.026807800008100457,,112.2119715000008,[np.float64(0.3725)],[np.float64(0.15833333333333333)],[1],[0],[0],[0.8743580000009388],['Target'],Participant 4,001,2025-09-30_13h44.30.212,visual search task,,2025.1.1,59.921538737907404,2025-09-30 13h44.47.354168 +0530,
92,0,92,[np.float64(0.37583333333333335)],[np.float64(-0.041666666666666664)],[1],[0],[0],[0.7594649999955436],['Target'],92,0,92,0,112.24912150000455,,10,112.23680360001163,112.24912150000455,112.24912150000455,0.02465150000352878,,112.99647220000043,[np.float64(0.37583333333333335)],[np.float64(-0.041666666666666664)],[1],[0],[0],[0.7594649999955436],['Target'],Participant 4,001,2025-09-30_13h44.30.212,visual search task,,2025.1.1,59.921538737907404,2025-09-30 13h44.47.354168 +0530,
93,0,93,[np.float64(0.4975)],[np.float64(-0.38333333333333336)],[1],[0],[0],[0.9596798999991734],['Target'],93,0,93,0,113.03482530001202,,10,113.02304210000148,113.03482530001202,113.03482530001202,0.026329200001782738,,113.98296030001075,[np.float64(0.4975)],[np.float64(-0.38333333333333336)],[1],[0],[0],[0.9596798999991734],['Target'],Participant 4,001,2025-09-30_13h44.30.212,visual search task,,2025.1.1,59.921538737907404,2025-09-30 13h44.47.354168 +0530,
94,0,94,[np.float64(-0.49916666666666665)],[np.float64(-0.3541666666666667)],[1],[0],[0],[1.0332550000021001],['Target'],94,0,94,0,114.0079565000051,,5,113.99849100000574,114.0079565000051,114.0079565000051,0.01525309999124147,115.0120864000055,115.031982600005,[np.float64(-0.49916666666666665)],[np.float64(-0.3541666666666667)],[1],[0],[0],[1.0332550000021001],['Target'],Participant 4,001,2025-09-30_13h44.30.212,visual search task,,2025.1.1,59.921538737907404,2025-09-30 13h44.47.354168 +0530,
95,0,95,[np.float64(-0.2808333333333333)],[np.float64(-0.43)],[1],[0],[0],[0.9012834000022849],['Target'],95,0,95,0,115.05496030001086,,5,115.04623670000001,115.05496030001086,115.05496030001086,0.014054799990844913,,115.9477149000013,[np.float64(-0.2808333333333333)],[np.float64(-0.43)],[1],[0],[0],[0.9012834000022849],['Target'],Participant 4,001,2025-09-30_13h44.30.212,visual search task,,2025.1.1,59.921538737907404,2025-09-30 13h44.47.354168 +0530,
96,0,96,"[np.float64(-0.11333333333333333), np.float64(-0.11333333333333333)]","[np.float64(0.4791666666666667), np.float64(0.4708333333333333)]","[1, 1]","[0, 0]","[0, 0]","[1.2622446000023047, 1.729106500002672]","[None, 'Target']",96,0,96,0,115.98271039999963,,10,115.97166490000382,115.98271039999963,115.98271039999963,0.023769000006723218,116.99795740000263,117.70093580000685,"[np.float64(-0.11333333333333333), np.float64(-0.11333333333333333)]","[np.float64(0.4791666666666667), np.float64(0.4708333333333333)]","[1, 1]","[0, 0]","[0, 0]","[1.2622446000023047, 1.729106500002672]","[None, 'Target']",Participant 4,001,2025-09-30_13h44.30.212,visual search task,,2025.1.1,59.921538737907404,2025-09-30 13h44.47.354168 +0530,
97,0,97,[np.float64(-0.25416666666666665)],[np.float64(0.2991666666666667)],[1],[0],[0],[0.8353239999996731],['Target'],97,0,97,0,117.72510049999983,,5,117.71636130000115,117.72510049999983,117.72510049999983,0.015214200000627898,,118.55190080001194,[np.float64(-0.25416666666666665)],[np.float64(0.2991666666666667)],[1],[0],[0],[0.8353239999996731],['Target'],Participant 4,001,2025-09-30_13h44.30.212,visual search task,,2025.1.1,59.921538737907404,2025-09-30 13h44.47.354168 +0530,
98,0,98,[np.float64(-0.38083333333333336)],[np.float64(-0.15333333333333332)],[1],[0],[0],[0.9042542999959551],['Target'],98,0,98,0,118.57356119999895,,5,118.56528439999965,118.57356119999895,118.57356119999895,0.013228099996922538,,119.46979509999801,[np.float64(-0.38083333333333336)],[np.float64(-0.15333333333333332)],[1],[0],[0],[0.9042542999959551],['Target'],Participant 4,001,2025-09-30_13h44.30.212,visual search task,,2025.1.1,59.921538737907404,2025-09-30 13h44.47.354168 +0530,
99,0,99,[np.float64(-0.35)],[np.float64(0.12916666666666668)],[1],[0],[0],[0.8359265000035521],['Target'],99,0,99,0,119.49457910000638,,5,119.48482830000285,119.49457910000638,119.49457910000638,0.014892599996528588,,120.32098010000482,[np.float64(-0.35)],[np.float64(0.12916666666666668)],[1],[0],[0],[0.8359265000035521],['Target'],Participant 4,001,2025-09-30_13h44.30.212,visual search task,,2025.1.1,59.921538737907404,2025-09-30 13h44.47.354168 +0530,
100,0,100,[np.float64(-0.22583333333333333)],[np.float64(0.23333333333333334)],[1],[0],[0],[0.8849766000057571],['Target'],100,0,100,0,120.34497310000006,,5,120.33603279999807,120.34497310000006,120.34497310000006,0.014884699994581752,,121.22120220000215,[np.float64(-0.22583333333333333)],[np.float64(0.23333333333333334)],[1],[0],[0],[0.8849766000057571],['Target'],Participant 4,001,2025-09-30_13h44.30.212,visual search task,,2025.1.1,59.921538737907404,2025-09-30 13h44.47.354168 +0530,
101,0,101,[np.float64(-0.2475)],[np.float64(0.3433333333333333)],[1],[0],[0],[0.6908816000068327],['Target'],101,0,101,0,121.26172540000698,,10,121.2484051000065,121.26172540000698,121.26172540000698,0.02707780001219362,,121.93951809999999,[np.float64(-0.2475)],[np.float64(0.3433333333333333)],[1],[0],[0],[0.6908816000068327],['Target'],Participant 4,001,2025-09-30_13h44.30.212,visual search task,,2025.1.1,59.921538737907404,2025-09-30 13h44.47.354168 +0530,
102,0,102,[np.float64(0.31416666666666665)],[np.float64(0.48083333333333333)],[1],[0],[0],[1.353576299996348],['Target'],102,0,102,0,121.96168930000567,,5,121.95330940000713,121.96168930000567,121.96168930000567,0.013550899995607324,122.97101690000272,123.30706279999868,[np.float64(0.31416666666666665)],[np.float64(0.48083333333333333)],[1],[0],[0],[1.353576299996348],['Target'],Participant 4,001,2025-09-30_13h44.30.212,visual search task,,2025.1.1,59.921538737907404,2025-09-30 13h44.47.354168 +0530,
103,0,103,[np.float64(0.25166666666666665)],[np.float64(0.1375)],[1],[0],[0],[0.8770167000038782],['Target'],103,0,103,0,123.34396080000442,,10,123.33137510000961,123.34396080000442,123.34396080000442,0.024145000003045425,,124.20857100001012,[np.float64(0.25166666666666665)],[np.float64(0.1375)],[1],[0],[0],[0.8770167000038782],['Target'],Participant 4,001,2025-09-30_13h44.30.212,visual search task,,2025.1.1,59.921538737907404,2025-09-30 13h44.47.354168 +0530,
104,0,104,[np.float64(0.45)],[np.float64(0.23916666666666667)],[1],[0],[0],[0.735878599996795],['Target'],104,0,104,0,124.23041010000452,,5,124.22199990000809,124.23041010000452,124.23041010000452,0.013265799992950633,,124.95808150000812,[np.float64(0.45)],[np.float64(0.23916666666666667)],[1],[0],[0],[0.735878599996795],['Target'],Participant 4,001,2025-09-30_13h44.30.212,visual search task,,2025.1.1,59.921538737907404,2025-09-30 13h44.47.354168 +0530,
105,0,105,[np.float64(0.20166666666666666)],[np.float64(0.15083333333333335)],[1],[0],[0],[0.7537893999979133],['Target'],105,0,105,0,124.98075610000524,,5,124.97232850000728,124.98075610000524,124.98075610000524,0.014076299994485453,,125.72629530000268,[np.float64(0.20166666666666666)],[np.float64(0.15083333333333335)],[1],[0],[0],[0.7537893999979133],['Target'],Participant 4,001,2025-09-30_13h44.30.212,visual search task,,2025.1.1,59.921538737907404,2025-09-30 13h44.47.354168 +0530,
106,0,106,"[np.float64(-0.34), np.float64(-0.3466666666666667)]","[np.float64(0.07166666666666667), np.float64(0.08166666666666667)]","[1, 1]","[0, 0]","[0, 0]","[1.1024573000031523, 1.703965500011691]","[None, 'Target']",106,0,106,0,125.74920869999914,,5,125.7405482000031,125.74920869999914,125.74920869999914,0.01408919999084901,126.75849290000042,127.44471840000188,"[np.float64(-0.34), np.float64(-0.3466666666666667)]","[np.float64(0.07166666666666667), np.float64(0.08166666666666667)]","[1, 1]","[0, 0]","[0, 0]","[1.1024573000031523, 1.703965500011691]","[None, 'Target']",Participant 4,001,2025-09-30_13h44.30.212,visual search task,,2025.1.1,59.921538737907404,2025-09-30 13h44.47.354168 +0530,
107,0,107,[np.float64(0.1725)],[np.float64(0.0016666666666666668)],[1],[0],[0],[1.1209824000106892],['Target'],107,0,107,0,127.46748550000484,,5,127.45879570000398,127.46748550000484,127.46748550000484,0.013921599995228462,128.47738209999807,128.57996030000504,[np.float64(0.1725)],[np.float64(0.0016666666666666668)],[1],[0],[0],[1.1209824000106892],['Target'],Participant 4,001,2025-09-30_13h44.30.212,visual search task,,2025.1.1,59.921538737907404,2025-09-30 13h44.47.354168 +0530,
108,0,108,"[np.float64(0.44416666666666665), np.float64(0.4508333333333333), np.float64(0.4583333333333333)]","[np.float64(0.035833333333333335), np.float64(0.0325), np.float64(0.024166666666666666)]","[1, 1, 1]","[0, 0, 0]","[0, 0, 0]","[0.9584633000049507, 1.5254975999996532, 2.1604230999946594]","[None, None, 'Target']",108,0,108,0,128.61930310000025,,10,128.60518050000246,128.61930310000025,128.61930310000025,0.02508269999816548,129.62867070001084,130.76579350000247,"[np.float64(0.44416666666666665), np.float64(0.4508333333333333), np.float64(0.4583333333333333)]","[np.float64(0.035833333333333335), np.float64(0.0325), np.float64(0.024166666666666666)]","[1, 1, 1]","[0, 0, 0]","[0, 0, 0]","[0.9584633000049507, 1.5254975999996532, 2.1604230999946594]","[None, None, 'Target']",Participant 4,001,2025-09-30_13h44.30.212,visual search task,,2025.1.1,59.921538737907404,2025-09-30 13h44.47.354168 +0530,
109,0,109,[np.float64(0.12583333333333332)],[np.float64(0.42916666666666664)],[1],[0],[0],[2.024399199988693],['Target'],109,0,109,0,130.8060254000011,,10,130.7928862000117,130.8060254000011,130.8060254000011,0.02690539999457542,131.81415850001213,132.81749860000855,[np.float64(0.12583333333333332)],[np.float64(0.42916666666666664)],[1],[0],[0],[2.024399199988693],['Target'],Participant 4,001,2025-09-30_13h44.30.212,visual search task,,2025.1.1,59.921538737907404,2025-09-30 13h44.47.354168 +0530,
110,0,110,[np.float64(-0.35833333333333334)],[np.float64(0.13833333333333334)],[1],[0],[0],[1.0106371000001673],['Target'],110,0,110,0,132.85491600001114,,10,132.8415118999983,132.85491600001114,132.85491600001114,0.023815900000045076,133.8899902000121,133.8523176000017,[np.float64(-0.35833333333333334)],[np.float64(0.13833333333333334)],[1],[0],[0],[1.0106371000001673],['Target'],Participant 4,001,2025-09-30_13h44.30.212,visual search task,,2025.1.1,59.921538737907404,2025-09-30 13h44.47.354168 +0530,
111,0,111,[np.float64(-0.285)],[np.float64(-0.2758333333333333)],[1],[0],[0],[1.0742716999957338],['Target'],111,0,111,0,133.8899902000121,,10,133.87874759999977,133.8899902000121,133.8899902000121,0.026234399992972612,134.9009980000119,134.95320720000018,[np.float64(-0.285)],[np.float64(-0.2758333333333333)],[1],[0],[0],[1.0742716999957338],['Target'],Participant 4,001,2025-09-30_13h44.30.212,visual search task,,2025.1.1,59.921538737907404,2025-09-30 13h44.47.354168 +0530,
112,0,112,[np.float64(-0.06833333333333333)],[np.float64(0.33)],[1],[0],[0],[0.9539269999950193],['Target'],112,0,112,0,134.97639380001056,,5,134.96729290000803,134.97639380001056,134.97639380001056,0.013873300005798228,,135.9214198000118,[np.float64(-0.06833333333333333)],[np.float64(0.33)],[1],[0],[0],[0.9539269999950193],['Target'],Participant 4,001,2025-09-30_13h44.30.212,visual search task,,2025.1.1,59.921538737907404,2025-09-30 13h44.47.354168 +0530,
113,0,113,[np.float64(0.4925)],[np.float64(0.20166666666666666)],[1],[0],[0],[0.9522082999901613],['Target'],113,0,113,0,135.945650499998,,5,135.93631810000807,135.945650499998,135.945650499998,0.014713399999891408,,136.88871740001196,[np.float64(0.4925)],[np.float64(0.20166666666666666)],[1],[0],[0],[0.9522082999901613],['Target'],Participant 4,001,2025-09-30_13h44.30.212,visual search task,,2025.1.1,59.921538737907404,2025-09-30 13h44.47.354168 +0530,
114,0,114,[np.float64(-0.20583333333333334)],[np.float64(0.25916666666666666)],[1],[0],[0],[0.8852999999944586],['Target'],114,0,114,0,136.91208980001102,,5,136.902482400008,136.91208980001102,136.91208980001102,0.01363899999705609,,137.78799390001222,[np.float64(-0.20583333333333334)],[np.float64(0.25916666666666666)],[1],[0],[0],[0.8852999999944586],['Target'],Participant 4,001,2025-09-30_13h44.30.212,visual search task,,2025.1.1,59.921538737907404,2025-09-30 13h44.47.354168 +0530,
115,0,115,[np.float64(-0.33916666666666667)],[np.float64(0.45666666666666667)],[1],[0],[0],[0.8110077000019373],['Target'],115,0,115,0,137.8258424000087,,10,137.81401590000314,137.8258424000087,137.8258424000087,0.025852799997664988,,138.6252172000095,[np.float64(-0.33916666666666667)],[np.float64(0.45666666666666667)],[1],[0],[0],[0.8110077000019373],['Target'],Participant 4,001,2025-09-30_13h44.30.212,visual search task,,2025.1.1,59.921538737907404,2025-09-30 13h44.47.354168 +0530,
116,0,116,[np.float64(0.25166666666666665)],[np.float64(0.4025)],[1],[0],[0],[1.367783599998802],['Target'],116,0,116,0,138.6498866000038,,5,138.6409064000036,138.6498866000038,138.6498866000038,0.015558800005237572,139.6564739000023,140.00904250000895,[np.float64(0.25166666666666665)],[np.float64(0.4025)],[1],[0],[0],[1.367783599998802],['Target'],Participant 4,001,2025-09-30_13h44.30.212,visual search task,,2025.1.1,59.921538737907404,2025-09-30 13h44.47.354168 +0530,
117,0,117,[np.float64(0.44416666666666665)],[np.float64(0.1875)],[1],[0],[0],[0.7703414999996312],['Target'],117,0,117,0,140.03193420000025,,5,140.02246770000784,140.03193420000025,140.03193420000025,0.01324190000013914,,140.7930170000036,[np.float64(0.44416666666666665)],[np.float64(0.1875)],[1],[0],[0],[0.7703414999996312],['Target'],Participant 4,001,2025-09-30_13h44.30.212,visual search task,,2025.1.1,59.921538737907404,2025-09-30 13h44.47.354168 +0530,
118,0,118,[np.float64(0.39)],[np.float64(0.14833333333333334)],[1],[0],[0],[0.602697199996328],['Target'],118,0,118,0,140.8149368000013,,5,140.80693630001042,140.8149368000013,140.8149368000013,0.013741600007051602,,141.40981710000779,[np.float64(0.39)],[np.float64(0.14833333333333334)],[1],[0],[0],[0.602697199996328],['Target'],Participant 4,001,2025-09-30_13h44.30.212,visual search task,,2025.1.1,59.921538737907404,2025-09-30 13h44.47.354168 +0530,
119,0,119,[np.float64(0.1225)],[np.float64(-0.17416666666666666)],[1],[0],[0],[0.9567208000080427],['Target'],119,0,119,0,141.44968489999883,,10,141.43777600000612,141.44968489999883,141.44968489999883,0.027834599997731857,,142.39466930000344,[np.float64(0.1225)],[np.float64(-0.17416666666666666)],[1],[0],[0],[0.9567208000080427],['Target'],Participant 4,001,2025-09-30_13h44.30.212,visual search task,,2025.1.1,59.921538737907404,2025-09-30 13h44.47.354168 +0530,
120,0,120,[np.float64(-0.025833333333333333)],[np.float64(-0.2225)],[1],[0],[0],[0.8741449999943143],['Target'],120,0,120,0,142.43267720000586,,10,142.42119010000897,142.43267720000586,142.43267720000586,0.02636509999865666,,143.2955195000104,[np.float64(-0.025833333333333333)],[np.float64(-0.2225)],[1],[0],[0],[0.8741449999943143],['Target'],Participant 4,001,2025-09-30_13h44.30.212,visual search task,,2025.1.1,59.921538737907404,2025-09-30 13h44.47.354168 +0530,
121,0,121,[np.float64(0.2125)],[np.float64(0.024166666666666666)],[1],[0],[0],[0.7535403000074439],['Target'],121,0,121,0,143.31950959999813,,5,143.31018200000108,143.31950959999813,143.31950959999813,0.014511699991999194,,144.0639330999984,[np.float64(0.2125)],[np.float64(0.024166666666666666)],[1],[0],[0],[0.7535403000074439],['Target'],Participant 4,001,2025-09-30_13h44.30.212,visual search task,,2025.1.1,59.921538737907404,2025-09-30 13h44.47.354168 +0530,
122,0,122,[np.float64(0.13083333333333333)],[np.float64(-0.19083333333333333)],[1],[0],[0],[0.8519730999978492],['Target'],122,0,122,0,144.08728669999982,,5,144.07861419999972,144.08728669999982,144.08728669999982,0.014523300007567741,,144.9307897000108,[np.float64(0.13083333333333333)],[np.float64(-0.19083333333333333)],[1],[0],[0],[0.8519730999978492],['Target'],Participant 4,001,2025-09-30_13h44.30.212,visual search task,,2025.1.1,59.921538737907404,2025-09-30 13h44.47.354168 +0530,
123,0,123,"[np.float64(0.3233333333333333), np.float64(0.30833333333333335)]","[np.float64(0.39166666666666666), np.float64(0.3958333333333333)]","[1, 1]","[0, 0]","[0, 0]","[0.9254749000101583, 1.392956800002139]","[None, 'Target']",123,0,123,0,144.9694659000088,,10,144.9559339000116,144.9694659000088,144.9694659000088,0.02497410000069067,145.97982220000995,146.3490909000102,"[np.float64(0.3233333333333333), np.float64(0.30833333333333335)]","[np.float64(0.39166666666666666), np.float64(0.3958333333333333)]","[1, 1]","[0, 0]","[0, 0]","[0.9254749000101583, 1.392956800002139]","[None, 'Target']",Participant 4,001,2025-09-30_13h44.30.212,visual search task,,2025.1.1,59.921538737907404,2025-09-30 13h44.47.354168 +0530,
124,0,124,"[np.float64(-0.2808333333333333), np.float64(-0.26416666666666666), np.float64(-0.2475)]","[np.float64(0.2791666666666667), np.float64(0.2783333333333333), np.float64(0.2758333333333333)]","[1, 1, 1]","[0, 0, 0]","[0, 0, 0]","[0.8091024000023026, 1.2754497999994783, 1.842945199998212]","[None, None, 'Target']",124,0,124,0,146.38744130000123,,10,146.37444040000264,146.38744130000123,146.38744130000123,0.02506300000823103,147.3977278000093,148.21757000000798,"[np.float64(-0.2808333333333333), np.float64(-0.26416666666666666), np.float64(-0.2475)]","[np.float64(0.2791666666666667), np.float64(0.2783333333333333), np.float64(0.2758333333333333)]","[1, 1, 1]","[0, 0, 0]","[0, 0, 0]","[0.8091024000023026, 1.2754497999994783, 1.842945199998212]","[None, None, 'Target']",Participant 4,001,2025-09-30_13h44.30.212,visual search task,,2025.1.1,59.921538737907404,2025-09-30 13h44.47.354168 +0530,
125,0,125,[np.float64(0.2941666666666667)],[np.float64(0.1)],[1],[0],[0],[1.1375671999994665],['Target'],125,0,125,0,148.2420459999994,,5,148.2323449000105,148.2420459999994,148.2420459999994,0.01459239999530837,149.25012770001194,149.37013989999832,[np.float64(0.2941666666666667)],[np.float64(0.1)],[1],[0],[0],[1.1375671999994665],['Target'],Participant 4,001,2025-09-30_13h44.30.212,visual search task,,2025.1.1,59.921538737907404,2025-09-30 13h44.47.354168 +0530,
126,0,126,[np.float64(-0.365)],[np.float64(0.3908333333333333)],[1],[0],[0],[0.8200154000078328],['Target'],126,0,126,0,149.39154060000146,,5,149.383098899998,149.39154060000146,149.39154060000146,0.012759000004734844,,150.2032920000056,[np.float64(-0.365)],[np.float64(0.3908333333333333)],[1],[0],[0],[0.8200154000078328],['Target'],Participant 4,001,2025-09-30_13h44.30.212,visual search task,,2025.1.1,59.921538737907404,2025-09-30 13h44.47.354168 +0530,
127,0,127,[np.float64(-0.17083333333333334)],[np.float64(-0.165)],[1],[0],[0],[0.9535005000070669],['Target'],127,0,127,0,150.2265502000082,,5,150.21763009999995,150.2265502000082,150.2265502000082,0.014230300002964213,,151.17134840000654,[np.float64(-0.17083333333333334)],[np.float64(-0.165)],[1],[0],[0],[0.9535005000070669],['Target'],Participant 4,001,2025-09-30_13h44.30.212,visual search task,,2025.1.1,59.921538737907404,2025-09-30 13h44.47.354168 +0530,
128,0,128,[np.float64(-0.0425)],[np.float64(-0.34)],[1],[0],[0],[1.0567956999875605],['Target'],128,0,128,0,151.21075569999812,,10,151.199617700011,151.21075569999812,151.21075569999812,0.028130100006819703,152.22019010000804,152.25664760000654,[np.float64(-0.0425)],[np.float64(-0.34)],[1],[0],[0],[1.0567956999875605],['Target'],Participant 4,001,2025-09-30_13h44.30.212,visual search task,,2025.1.1,59.921538737907404,2025-09-30 13h44.47.354168 +0530,
129,0,129,[np.float64(-0.46)],[np.float64(-0.04)],[1],[0],[0],[1.1855369999975665],['Target'],129,0,129,0,152.28119170000718,,5,152.2720096000121,152.28119170000718,152.28119170000718,0.015164199998253025,153.28813290000835,153.45779600000242,[np.float64(-0.46)],[np.float64(-0.04)],[1],[0],[0],[1.1855369999975665],['Target'],Participant 4,001,2025-09-30_13h44.30.212,visual search task,,2025.1.1,59.921538737907404,2025-09-30 13h44.47.354168 +0530,
130,0,130,[np.float64(-0.40166666666666667)],[np.float64(0.15833333333333333)],[1],[0],[0],[0.9017225999996299],['Target'],130,0,130,0,153.48094200000924,,5,153.47207680001156,153.48094200000924,153.48094200000924,0.014089799995417707,,154.374066400007,[np.float64(-0.40166666666666667)],[np.float64(0.15833333333333333)],[1],[0],[0],[0.9017225999996299],['Target'],Participant 4,001,2025-09-30_13h44.30.212,visual search task,,2025.1.1,59.921538737907404,2025-09-30 13h44.47.354168 +0530,
131,0,131,"[np.float64(-0.2708333333333333), np.float64(-0.23)]","[np.float64(0.285), np.float64(0.2941666666666667)]","[1, 1]","[0, 0]","[0, 0]","[0.8381241000024602, 1.472229300008621]","[None, 'Target']",131,0,131,0,154.39686660000007,,5,154.3872970000084,154.39686660000007,154.39686660000007,0.013115099995047785,155.40641880000476,155.85975529999996,"[np.float64(-0.2708333333333333), np.float64(-0.23)]","[np.float64(0.285), np.float64(0.2941666666666667)]","[1, 1]","[0, 0]","[0, 0]","[0.8381241000024602, 1.472229300008621]","[None, 'Target']",Participant 4,001,2025-09-30_13h44.30.212,visual search task,,2025.1.1,59.921538737907404,2025-09-30 13h44.47.354168 +0530,
132,0,132,[np.float64(0.385)],[np.float64(0.20666666666666667)],[1],[0],[0],[1.1669853000057628],['Target'],132,0,132,0,155.88381220000156,,5,155.87581520000822,155.88381220000156,155.88381220000156,0.01582300000882242,156.89208640001016,157.0429964000068,[np.float64(0.385)],[np.float64(0.20666666666666667)],[1],[0],[0],[1.1669853000057628],['Target'],Participant 4,001,2025-09-30_13h44.30.212,visual search task,,2025.1.1,59.921538737907404,2025-09-30 13h44.47.354168 +0530,
133,0,133,[np.float64(-0.305)],[np.float64(-0.445)],[1],[0],[0],[1.0720013999962248],['Target'],133,0,133,0,157.0845113000105,,10,157.07282339999801,157.0845113000105,157.0845113000105,0.029702800005907193,158.0931503000029,158.14500119999866,[np.float64(-0.305)],[np.float64(-0.445)],[1],[0],[0],[1.0720013999962248],['Target'],Participant 4,001,2025-09-30_13h44.30.212,visual search task,,2025.1.1,59.921538737907404,2025-09-30 13h44.47.354168 +0530,
134,0,134,[np.float64(0.275)],[np.float64(0.20666666666666667)],[1],[0],[0],[1.1700304999976652],['Target'],134,0,134,0,158.16899879999983,,5,158.1601883000112,158.16899879999983,158.16899879999983,0.014975199999753386,159.1775054000027,159.3304463000095,[np.float64(0.275)],[np.float64(0.20666666666666667)],[1],[0],[0],[1.1700304999976652],['Target'],Participant 4,001,2025-09-30_13h44.30.212,visual search task,,2025.1.1,59.921538737907404,2025-09-30 13h44.47.354168 +0530,
135,0,135,"[np.float64(-0.44166666666666665), np.float64(-0.43833333333333335)]","[np.float64(-0.3358333333333333), np.float64(-0.3458333333333333)]","[1, 1]","[0, 0]","[0, 0]","[0.9854840999905718, 1.9365574999974342]","[None, 'Target']",135,0,135,0,159.35395109999808,,5,159.34542610000062,159.35395109999808,159.35395109999808,0.0147856999974465,160.3623312999989,161.28215959999943,"[np.float64(-0.44166666666666665), np.float64(-0.43833333333333335)]","[np.float64(-0.3358333333333333), np.float64(-0.3458333333333333)]","[1, 1]","[0, 0]","[0, 0]","[0.9854840999905718, 1.9365574999974342]","[None, 'Target']",Participant 4,001,2025-09-30_13h44.30.212,visual search task,,2025.1.1,59.921538737907404,2025-09-30 13h44.47.354168 +0530,
136,0,136,"[np.float64(-0.35), np.float64(-0.35), np.float64(-0.3591666666666667)]","[np.float64(0.27), np.float64(0.245), np.float64(0.24)]","[1, 1, 1]","[0, 0, 0]","[0, 0, 0]","[1.087527499999851, 1.6210663999954704, 2.1381331000011414]","[None, None, 'Target']",136,0,136,0,161.30451020000328,,5,161.29603420000058,161.30451020000328,161.30451020000328,0.013708700003917329,162.31412470000214,163.43432870000834,"[np.float64(-0.35), np.float64(-0.35), np.float64(-0.3591666666666667)]","[np.float64(0.27), np.float64(0.245), np.float64(0.24)]","[1, 1, 1]","[0, 0, 0]","[0, 0, 0]","[1.087527499999851, 1.6210663999954704, 2.1381331000011414]","[None, None, 'Target']",Participant 4,001,2025-09-30_13h44.30.212,visual search task,,2025.1.1,59.921538737907404,2025-09-30 13h44.47.354168 +0530,
137,0,137,[np.float64(-0.4058333333333333)],[np.float64(-0.47583333333333333)],[1],[0],[0],[1.009817700003623],['Target'],137,0,137,0,163.47189480000816,,10,163.45884500000102,163.47189480000816,163.47189480000816,0.02435830001195427,164.5090685000032,164.4688324000017,[np.float64(-0.4058333333333333)],[np.float64(-0.47583333333333333)],[1],[0],[0],[1.009817700003623],['Target'],Participant 4,001,2025-09-30_13h44.30.212,visual search task,,2025.1.1,59.921538737907404,2025-09-30 13h44.47.354168 +0530,
138,0,138,[np.float64(-0.14)],[np.float64(0.035)],[1],[0],[0],[1.2567965999915032],['Target'],138,0,138,0,164.5090685000032,,10,164.49705650001124,164.5090685000032,164.5090685000032,0.028034499991917983,165.51807240000926,165.75409740000032,[np.float64(-0.14)],[np.float64(0.035)],[1],[0],[0],[1.2567965999915032],['Target'],Participant 4,001,2025-09-30_13h44.30.212,visual search task,,2025.1.1,59.921538737907404,2025-09-30 13h44.47.354168 +0530,
139,0,139,[np.float64(-0.31916666666666665)],[np.float64(-0.1075)],[1],[0],[0],[0.7580298999964725],['Target'],139,0,139,0,165.79211790001136,,10,165.7788215000037,165.79211790001136,165.79211790001136,0.024512400006642565,,166.5370444,[np.float64(-0.31916666666666665)],[np.float64(-0.1075)],[1],[0],[0],[0.7580298999964725],['Target'],Participant 4,001,2025-09-30_13h44.30.212,visual search task,,2025.1.1,59.921538737907404,2025-09-30 13h44.47.354168 +0530,
140,0,140,[np.float64(0.4775)],[np.float64(0.23)],[1],[0],[0],[1.2420235999888973],['Target'],140,0,140,0,166.5766147000104,,10,166.56395710000652,166.5766147000104,166.5766147000104,0.02676170000631828,167.5870247999992,167.80616990001,[np.float64(0.4775)],[np.float64(0.23)],[1],[0],[0],[1.2420235999888973],['Target'],Participant 4,001,2025-09-30_13h44.30.212,visual search task,,2025.1.1,59.921538737907404,2025-09-30 13h44.47.354168 +0530,
141,0,141,[np.float64(-0.043333333333333335)],[np.float64(-0.2025)],[1],[0],[0],[0.9577190999989398],['Target'],141,0,141,0,167.8452571000089,,10,167.83164780000516,167.8452571000089,167.8452571000089,0.02527520000876393,,168.7895528000081,[np.float64(-0.043333333333333335)],[np.float64(-0.2025)],[1],[0],[0],[0.9577190999989398],['Target'],Participant 4,001,2025-09-30_13h44.30.212,visual search task,,2025.1.1,59.921538737907404,2025-09-30 13h44.47.354168 +0530,
142,0,142,[np.float64(-0.16416666666666666)],[np.float64(0.1625)],[1],[0],[0],[0.7915671999944607],['Target'],142,0,142,0,168.82721400000446,,10,168.81483909999952,168.82721400000446,168.82721400000446,0.025131900009000674,,169.60665120001067,[np.float64(-0.16416666666666666)],[np.float64(0.1625)],[1],[0],[0],[0.7915671999944607],['Target'],Participant 4,001,2025-09-30_13h44.30.212,visual search task,,2025.1.1,59.921538737907404,2025-09-30 13h44.47.354168 +0530,
143,0,143,[np.float64(0.1475)],[np.float64(0.12333333333333334)],[1],[0],[0],[0.7911569999996573],['Target'],143,0,143,0,169.6259915999981,,5,169.61790779999865,169.6259915999981,169.6259915999981,0.01110230000631418,,170.40925609999977,[np.float64(0.1475)],[np.float64(0.12333333333333334)],[1],[0],[0],[0.7911569999996573],['Target'],Participant 4,001,2025-09-30_13h44.30.212,visual search task,,2025.1.1,59.921538737907404,2025-09-30 13h44.47.354168 +0530,
144,0,144,[np.float64(-0.1975)],[np.float64(-0.31583333333333335)],[1],[0],[0],[0.9525633000012022],['Target'],144,0,144,0,170.43310690000362,,5,170.4242288000096,170.43310690000362,170.43310690000362,0.014782500002183951,,171.37696330000472,[np.float64(-0.1975)],[np.float64(-0.31583333333333335)],[1],[0],[0],[0.9525633000012022],['Target'],Participant 4,001,2025-09-30_13h44.30.212,visual search task,,2025.1.1,59.921538737907404,2025-09-30 13h44.47.354168 +0530,
145,0,145,[np.float64(0.17166666666666666)],[np.float64(-0.21666666666666667)],[1],[0],[0],[1.0371118000039132],['Target'],145,0,145,0,171.39887770000496,,5,171.39053750000312,171.39887770000496,171.39887770000496,0.013449399993987754,172.4088247000036,172.42783830000553,[np.float64(0.17166666666666666)],[np.float64(-0.21666666666666667)],[1],[0],[0],[1.0371118000039132],['Target'],Participant 4,001,2025-09-30_13h44.30.212,visual search task,,2025.1.1,59.921538737907404,2025-09-30 13h44.47.354168 +0530,
146,0,146,[np.float64(0.006666666666666667)],[np.float64(0.105)],[1],[0],[0],[1.9729870000010123],['Target'],146,0,146,0,172.4677273999987,,10,172.45522920000076,172.4677273999987,172.4677273999987,0.02715269998589065,173.47630260000005,174.42856910001137,[np.float64(0.006666666666666667)],[np.float64(0.105)],[1],[0],[0],[1.9729870000010123],['Target'],Participant 4,001,2025-09-30_13h44.30.212,visual search task,,2025.1.1,59.921538737907404,2025-09-30 13h44.47.354168 +0530,
147,0,147,[np.float64(-0.24666666666666667)],[np.float64(0.16416666666666666)],[1],[0],[0],[0.7561375000077533],['Target'],147,0,147,0,174.45026230000076,,5,174.44161680000252,174.45026230000076,174.45026230000076,0.012848599988501519,,175.19799860000785,[np.float64(-0.24666666666666667)],[np.float64(0.16416666666666666)],[1],[0],[0],[0.7561375000077533],['Target'],Participant 4,001,2025-09-30_13h44.30.212,visual search task,,2025.1.1,59.921538737907404,2025-09-30 13h44.47.354168 +0530,
148,0,148,[np.float64(0.11333333333333333)],[np.float64(-0.15833333333333333)],[1],[0],[0],[1.0197449999977835],['Target'],148,0,148,0,175.2210982000106,,5,175.21221030000015,175.2210982000106,175.2210982000106,0.01404480000201147,176.23002740000084,176.23213280001073,[np.float64(0.11333333333333333)],[np.float64(-0.15833333333333333)],[1],[0],[0],[1.0197449999977835],['Target'],Participant 4,001,2025-09-30_13h44.30.212,visual search task,,2025.1.1,59.921538737907404,2025-09-30 13h44.47.354168 +0530,
149,0,149,[np.float64(-0.4583333333333333)],[np.float64(0.41833333333333333)],[1],[0],[0],[1.571548599997186],['Target'],149,0,149,0,176.25419990000955,,5,176.24515790000441,176.25419990000955,176.25419990000955,0.012855599998147227,177.26373800000874,177.81688120000763,[np.float64(-0.4583333333333333)],[np.float64(0.41833333333333333)],[1],[0],[0],[1.571548599997186],['Target'],Participant 4,001,2025-09-30_13h44.30.212,visual search task,,2025.1.1,59.921538737907404,2025-09-30 13h44.47.354168 +0530,
150,0,150,[np.float64(-0.011666666666666667)],[np.float64(-0.4375)],[1],[0],[0],[1.1895124000002397],['Target'],150,0,150,0,177.8598944000114,,10,177.8455835000059,177.8598944000114,177.8598944000114,0.028560699996887706,178.8654513000074,179.035315000001,[np.float64(-0.011666666666666667)],[np.float64(-0.4375)],[1],[0],[0],[1.1895124000002397],['Target'],Participant 4,001,2025-09-30_13h44.30.212,visual search task,,2025.1.1,59.921538737907404,2025-09-30 13h44.47.354168 +0530,
151,0,151,"[np.float64(0.15166666666666667), np.float64(0.16083333333333333)]","[np.float64(-0.4766666666666667), np.float64(-0.4766666666666667)]","[1, 1]","[0, 0]","[0, 0]","[0.7764922000060324, 1.3268981000001077]","[None, 'Target']",151,0,151,0,179.0720971000119,,10,179.05915910001204,179.0720971000119,179.0720971000119,0.02365760000247974,180.08392129999993,180.38623740000185,"[np.float64(0.15166666666666667), np.float64(0.16083333333333333)]","[np.float64(-0.4766666666666667), np.float64(-0.4766666666666667)]","[1, 1]","[0, 0]","[0, 0]","[0.7764922000060324, 1.3268981000001077]","[None, 'Target']",Participant 4,001,2025-09-30_13h44.30.212,visual search task,,2025.1.1,59.921538737907404,2025-09-30 13h44.47.354168 +0530,
152,0,152,[np.float64(0.2475)],[np.float64(0.3858333333333333)],[1],[0],[0],[1.2203576000028988],['Target'],152,0,152,0,180.40862080000807,,5,180.4007411000057,180.40862080000807,180.40862080000807,0.014281700001447462,181.41892710000684,181.6213698000065,[np.float64(0.2475)],[np.float64(0.3858333333333333)],[1],[0],[0],[1.2203576000028988],['Target'],Participant 4,001,2025-09-30_13h44.30.212,visual search task,,2025.1.1,59.921538737907404,2025-09-30 13h44.47.354168 +0530,
153,0,153,[np.float64(0.33666666666666667)],[np.float64(0.30916666666666665)],[1],[0],[0],[0.8420055000024149],['Target'],153,0,153,0,181.65918210000382,,10,181.64608980000776,181.65918210000382,181.65918210000382,0.02460439999413211,,182.48831150001206,[np.float64(0.33666666666666667)],[np.float64(0.30916666666666665)],[1],[0],[0],[0.8420055000024149],['Target'],Participant 4,001,2025-09-30_13h44.30.212,visual search task,,2025.1.1,59.921538737907404,2025-09-30 13h44.47.354168 +0530,
154,0,154,"[np.float64(-0.06833333333333333), np.float64(-0.07416666666666667)]","[np.float64(-0.43666666666666665), np.float64(-0.43666666666666665)]","[1, 1]","[0, 0]","[0, 0]","[1.1391412999946624, 1.5884289999958128]","[None, 'Target']",154,0,154,0,182.5105165999994,,5,182.5023474000045,182.5105165999994,182.5105165999994,0.013851100011379458,183.52080660000502,184.09094429999823,"[np.float64(-0.06833333333333333), np.float64(-0.07416666666666667)]","[np.float64(-0.43666666666666665), np.float64(-0.43666666666666665)]","[1, 1]","[0, 0]","[0, 0]","[1.1391412999946624, 1.5884289999958128]","[None, 'Target']",Participant 4,001,2025-09-30_13h44.30.212,visual search task,,2025.1.1,59.921538737907404,2025-09-30 13h44.47.354168 +0530,
155,0,155,[np.float64(0.31083333333333335)],[np.float64(0.18833333333333332)],[1],[0],[0],[1.2378732999932254],['Target'],155,0,155,0,184.11391070000536,,5,184.10429460000887,184.11391070000536,184.11391070000536,0.013193300008424558,185.12281780000194,185.3423627000011,[np.float64(0.31083333333333335)],[np.float64(0.18833333333333332)],[1],[0],[0],[1.2378732999932254],['Target'],Participant 4,001,2025-09-30_13h44.30.212,visual search task,,2025.1.1,59.921538737907404,2025-09-30 13h44.47.354168 +0530,
156,0,156,"[np.float64(-0.205), np.float64(-0.2), np.float64(-0.19916666666666666), np.float64(-0.19833333333333333)]","[np.float64(-0.25833333333333336), np.float64(-0.25833333333333336), np.float64(-0.25833333333333336), np.float64(-0.25833333333333336)]","[1, 1, 1, 1]","[0, 0, 0, 0]","[0, 0, 0, 0]","[1.0422191999969073, 1.5589767999917967, 2.060587400002987, 2.8457897000043886]","[None, None, None, 'Target']",156,0,156,0,185.38058260000253,,10,185.36720880000212,185.38058260000253,185.38058260000253,0.02465910000319127,186.39116670000658,188.21318880000035,"[np.float64(-0.205), np.float64(-0.2), np.float64(-0.19916666666666666), np.float64(-0.19833333333333333)]","[np.float64(-0.25833333333333336), np.float64(-0.25833333333333336), np.float64(-0.25833333333333336), np.float64(-0.25833333333333336)]","[1, 1, 1, 1]","[0, 0, 0, 0]","[0, 0, 0, 0]","[1.0422191999969073, 1.5589767999917967, 2.060587400002987, 2.8457897000043886]","[None, None, None, 'Target']",Participant 4,001,2025-09-30_13h44.30.212,visual search task,,2025.1.1,59.921538737907404,2025-09-30 13h44.47.354168 +0530,
157,0,157,[np.float64(0.12083333333333333)],[np.float64(0.19333333333333333)],[1],[0],[0],[1.5265826000104425],['Target'],157,0,157,0,188.25015469999926,,10,188.2372056000022,188.25015469999926,188.25015469999926,0.02368650000425987,189.26052350000828,189.76398100001097,[np.float64(0.12083333333333333)],[np.float64(0.19333333333333333)],[1],[0],[0],[1.5265826000104425],['Target'],Participant 4,001,2025-09-30_13h44.30.212,visual search task,,2025.1.1,59.921538737907404,2025-09-30 13h44.47.354168 +0530,
158,0,158,[np.float64(0.10333333333333333)],[np.float64(0.3308333333333333)],[1],[0],[0],[1.4535366999916732],['Target'],158,0,158,0,189.7884788000083,,5,189.77915180000127,189.7884788000083,189.7884788000083,0.014963100009481423,190.79549300001236,191.2328908000054,[np.float64(0.10333333333333333)],[np.float64(0.3308333333333333)],[1],[0],[0],[1.4535366999916732],['Target'],Participant 4,001,2025-09-30_13h44.30.212,visual search task,,2025.1.1,59.921538737907404,2025-09-30 13h44.47.354168 +0530,
159,0,159,[np.float64(0.36666666666666664)],[np.float64(0.4975)],[1],[0],[0],[2.442258100010804],['Target'],159,0,159,0,191.272621000011,,10,191.2604454000102,191.272621000011,191.272621000011,0.02736299998650793,192.28020940000715,193.7029615000065,[np.float64(0.36666666666666664)],[np.float64(0.4975)],[1],[0],[0],[2.442258100010804],['Target'],Participant 4,001,2025-09-30_13h44.30.212,visual search task,,2025.1.1,59.921538737907404,2025-09-30 13h44.47.354168 +0530,
160,0,160,[np.float64(-0.4633333333333333)],[np.float64(0.035)],[1],[0],[0],[1.19144999999844],['Target'],160,0,160,0,193.73946070000238,,10,193.72753010000451,193.73946070000238,193.73946070000238,0.024301600002218038,194.7500327000016,194.91916850001144,[np.float64(-0.4633333333333333)],[np.float64(0.035)],[1],[0],[0],[1.19144999999844],['Target'],Participant 4,001,2025-09-30_13h44.30.212,visual search task,,2025.1.1,59.921538737907404,2025-09-30 13h44.47.354168 +0530,
161,0,161,[np.float64(0.2025)],[np.float64(-0.09833333333333333)],[1],[0],[0],[1.1101403000066057],['Target'],161,0,161,0,194.95642850000877,,10,194.94432100000267,194.95642850000877,194.95642850000877,0.02495989999442827,195.96796059999906,196.05468820000533,[np.float64(0.2025)],[np.float64(-0.09833333333333333)],[1],[0],[0],[1.1101403000066057],['Target'],Participant 4,001,2025-09-30_13h44.30.212,visual search task,,2025.1.1,59.921538737907404,2025-09-30 13h44.47.354168 +0530,
162,0,162,"[np.float64(0.41583333333333333), np.float64(0.43666666666666665)]","[np.float64(-0.4558333333333333), np.float64(-0.4608333333333333)]","[1, 1]","[0, 0]","[0, 0]","[1.3185308999964036, 2.0526102000003448]","[None, 'Target']",162,0,162,0,196.07964950001042,,5,196.0698332000029,196.07964950001042,196.07964950001042,0.014917799999238923,197.08599890000187,198.12266300000192,"[np.float64(0.41583333333333333), np.float64(0.43666666666666665)]","[np.float64(-0.4558333333333333), np.float64(-0.4608333333333333)]","[1, 1]","[0, 0]","[0, 0]","[1.3185308999964036, 2.0526102000003448]","[None, 'Target']",Participant 4,001,2025-09-30_13h44.30.212,visual search task,,2025.1.1,59.921538737907404,2025-09-30 13h44.47.354168 +0530,
163,0,163,[np.float64(0.13833333333333334)],[np.float64(0.335)],[1],[0],[0],[1.119360400000005],['Target'],163,0,163,0,198.145683499999,,5,198.13737660000334,198.145683499999,198.145683499999,0.01451739999174606,199.15491910000856,199.25691710000683,[np.float64(0.13833333333333334)],[np.float64(0.335)],[1],[0],[0],[1.119360400000005],['Target'],Participant 4,001,2025-09-30_13h44.30.212,visual search task,,2025.1.1,59.921538737907404,2025-09-30 13h44.47.354168 +0530,
164,0,164,"[np.float64(0.07916666666666666), np.float64(0.10166666666666667)]","[np.float64(-0.04083333333333333), np.float64(-0.03916666666666667)]","[1, 1]","[0, 0]","[0, 0]","[1.1576676999975462, 1.874845499987714]","[None, 'Target']",164,0,164,0,199.2965996999992,,10,199.28390890000446,199.2965996999992,199.2965996999992,0.02683689999685157,200.30598869999812,201.158946800002,"[np.float64(0.07916666666666666), np.float64(0.10166666666666667)]","[np.float64(-0.04083333333333333), np.float64(-0.03916666666666667)]","[1, 1]","[0, 0]","[0, 0]","[1.1576676999975462, 1.874845499987714]","[None, 'Target']",Participant 4,001,2025-09-30_13h44.30.212,visual search task,,2025.1.1,59.921538737907404,2025-09-30 13h44.47.354168 +0530,
165,0,165,[np.float64(0.08916666666666667)],[np.float64(0.365)],[1],[0],[0],[0.8520900000003166],['Target'],165,0,165,0,201.18344880000222,,5,201.1741553000029,201.18344880000222,201.18344880000222,0.015008600006694905,,202.0264612000028,[np.float64(0.08916666666666667)],[np.float64(0.365)],[1],[0],[0],[0.8520900000003166],['Target'],Participant 4,001,2025-09-30_13h44.30.212,visual search task,,2025.1.1,59.921538737907404,2025-09-30 13h44.47.354168 +0530,
166,0,166,[np.float64(-0.44333333333333336)],[np.float64(-0.08916666666666667)],[1],[0],[0],[1.090446799993515],['Target'],166,0,166,0,202.0657215000101,,10,202.05333570000948,202.0657215000101,202.0657215000101,0.026727499993285164,203.0758002000075,203.14397460001055,[np.float64(-0.44333333333333336)],[np.float64(-0.08916666666666667)],[1],[0],[0],[1.090446799993515],['Target'],Participant 4,001,2025-09-30_13h44.30.212,visual search task,,2025.1.1,59.921538737907404,2025-09-30 13h44.47.354168 +0530,
167,0,167,[np.float64(-0.2866666666666667)],[np.float64(0.25833333333333336)],[1],[0],[0],[1.463349499987089],['Target'],167,0,167,0,203.17912790000264,,10,203.16726310001104,203.17912790000264,203.17912790000264,0.023131099995225668,204.193477000008,204.630822799998,[np.float64(-0.2866666666666667)],[np.float64(0.25833333333333336)],[1],[0],[0],[1.463349499987089],['Target'],Participant 4,001,2025-09-30_13h44.30.212,visual search task,,2025.1.1,59.921538737907404,2025-09-30 13h44.47.354168 +0530,
168,0,168,[np.float64(-0.3283333333333333)],[np.float64(0.43166666666666664)],[1],[0],[0],[1.0917526999983238],['Target'],168,0,168,0,204.66775990001042,,10,204.65630030000466,204.66775990001042,204.66775990001042,0.025317999999970198,205.67876920000708,205.74825840000995,[np.float64(-0.3283333333333333)],[np.float64(0.43166666666666664)],[1],[0],[0],[1.0917526999983238],['Target'],Participant 4,001,2025-09-30_13h44.30.212,visual search task,,2025.1.1,59.921538737907404,2025-09-30 13h44.47.354168 +0530,
169,0,169,[np.float64(0.25416666666666665)],[np.float64(-0.30833333333333335)],[1],[0],[0],[1.174898299999768],['Target'],169,0,169,0,205.7854695999995,,10,205.77402200001234,205.7854695999995,205.7854695999995,0.025529200007440522,206.7967643000011,206.94908880000003,[np.float64(0.25416666666666665)],[np.float64(-0.30833333333333335)],[1],[0],[0],[1.174898299999768],['Target'],Participant 4,001,2025-09-30_13h44.30.212,visual search task,,2025.1.1,59.921538737907404,2025-09-30 13h44.47.354168 +0530,
170,0,170,[np.float64(0.4633333333333333)],[np.float64(-0.10333333333333333)],[1],[0],[0],[1.3077854000002844],['Target'],170,0,170,0,206.98973200000182,,10,206.97640810000303,206.98973200000182,206.98973200000182,0.02715340000577271,207.99755630000436,208.2843978000019,[np.float64(0.4633333333333333)],[np.float64(-0.10333333333333333)],[1],[0],[0],[1.3077854000002844],['Target'],Participant 4,001,2025-09-30_13h44.30.212,visual search task,,2025.1.1,59.921538737907404,2025-09-30 13h44.47.354168 +0530,
171,0,171,[np.float64(0.43333333333333335)],[np.float64(-0.21916666666666668)],[1],[0],[0],[2.071055599997635],['Target'],171,0,171,0,208.30751700000837,,5,208.29909000000043,208.30751700000837,208.30751700000837,0.014497999989544041,209.31609050001134,210.37035340000875,[np.float64(0.43333333333333335)],[np.float64(-0.21916666666666668)],[1],[0],[0],[2.071055599997635],['Target'],Participant 4,001,2025-09-30_13h44.30.212,visual search task,,2025.1.1,59.921538737907404,2025-09-30 13h44.47.354168 +0530,
172,0,172,[np.float64(0.08916666666666667)],[np.float64(0.2325)],[1],[0],[0],[0.7990988999954425],['Target'],172,0,172,0,210.39511190001213,,5,210.38634200001252,210.39511190001213,210.39511190001213,0.015812899990123697,,211.1857033000124,[np.float64(0.08916666666666667)],[np.float64(0.2325)],[1],[0],[0],[0.7990988999954425],['Target'],Participant 4,001,2025-09-30_13h44.30.212,visual search task,,2025.1.1,59.921538737907404,2025-09-30 13h44.47.354168 +0530,
173,0,173,[np.float64(0.4675)],[np.float64(-0.14833333333333334)],[1],[0],[0],[1.0576686999993399],['Target'],173,0,173,0,211.22723270001006,,10,211.21351580000191,211.22723270001006,211.22723270001006,0.027672399999573827,212.235923500004,212.2714219000045,[np.float64(0.4675)],[np.float64(-0.14833333333333334)],[1],[0],[0],[1.0576686999993399],['Target'],Participant 4,001,2025-09-30_13h44.30.212,visual search task,,2025.1.1,59.921538737907404,2025-09-30 13h44.47.354168 +0530,
174,0,174,[np.float64(-0.17833333333333334)],[np.float64(0.09416666666666666)],[1],[0],[0],[0.9763815000042086],['Target'],174,0,174,0,212.30891980000888,,10,212.29689730000973,212.30891980000888,212.30891980000888,0.025282899994635954,,213.2734790000104,[np.float64(-0.17833333333333334)],[np.float64(0.09416666666666666)],[1],[0],[0],[0.9763815000042086],['Target'],Participant 4,001,2025-09-30_13h44.30.212,visual search task,,2025.1.1,59.921538737907404,2025-09-30 13h44.47.354168 +0530,
175,0,175,[np.float64(0.4841666666666667)],[np.float64(0.10333333333333333)],[1],[0],[0],[1.0866667999944184],['Target'],175,0,175,0,213.29582310000842,,5,213.28760530000727,213.29582310000842,213.29582310000842,0.013736499997321516,214.30471989999933,214.37449010000273,[np.float64(0.4841666666666667)],[np.float64(0.10333333333333333)],[1],[0],[0],[1.0866667999944184],['Target'],Participant 4,001,2025-09-30_13h44.30.212,visual search task,,2025.1.1,59.921538737907404,2025-09-30 13h44.47.354168 +0530,
176,0,176,[np.float64(-0.185)],[np.float64(0.11)],[1],[0],[0],[0.9858120999997482],['Target'],176,0,176,0,214.3976102000015,,5,214.38880240000435,214.3976102000015,214.3976102000015,0.01411960000405088,,215.3747827000043,[np.float64(-0.185)],[np.float64(0.11)],[1],[0],[0],[0.9858120999997482],['Target'],Participant 4,001,2025-09-30_13h44.30.212,visual search task,,2025.1.1,59.921538737907404,2025-09-30 13h44.47.354168 +0530,
177,0,177,[np.float64(0.4033333333333333)],[np.float64(0.4925)],[1],[0],[0],[1.0716717999894172],['Target'],177,0,177,0,215.39714080000704,,5,215.387991399999,215.39714080000704,215.39714080000704,0.013104000012390316,216.4071571000095,216.4599031000107,[np.float64(0.4033333333333333)],[np.float64(0.4925)],[1],[0],[0],[1.0716717999894172],['Target'],Participant 4,001,2025-09-30_13h44.30.212,visual search task,,2025.1.1,59.921538737907404,2025-09-30 13h44.47.354168 +0530,
178,0,178,[np.float64(0.16916666666666666)],[np.float64(-0.2841666666666667)],[1],[0],[0],[1.1704980000067735],['Target'],178,0,178,0,216.48221200000262,,5,216.4734623000113,216.48221200000262,216.48221200000262,0.01335889998881612,217.49149990000296,217.64413310000964,[np.float64(0.16916666666666666)],[np.float64(-0.2841666666666667)],[1],[0],[0],[1.1704980000067735],['Target'],Participant 4,001,2025-09-30_13h44.30.212,visual search task,,2025.1.1,59.921538737907404,2025-09-30 13h44.47.354168 +0530,
179,0,179,[np.float64(-0.06166666666666667)],[np.float64(-0.049166666666666664)],[1],[0],[0],[1.1241632000019308],['Target'],179,0,179,0,217.68444530000852,,10,217.67053889999806,217.68444530000852,217.68444530000852,0.026291200003470294,218.69281639999826,218.79489879999892,[np.float64(-0.06166666666666667)],[np.float64(-0.049166666666666664)],[1],[0],[0],[1.1241632000019308],['Target'],Participant 4,001,2025-09-30_13h44.30.212,visual search task,,2025.1.1,59.921538737907404,2025-09-30 13h44.47.354168 +0530,
180,0,180,[np.float64(0.15416666666666667)],[np.float64(-0.49416666666666664)],[1],[0],[0],[1.2746246000024257],['Target'],180,0,180,0,218.83441900000616,,10,218.82255730000907,218.83441900000616,218.83441900000616,0.027482000004965812,219.84447830000136,220.09738410000864,[np.float64(0.15416666666666667)],[np.float64(-0.49416666666666664)],[1],[0],[0],[1.2746246000024257],['Target'],Participant 4,001,2025-09-30_13h44.30.212,visual search task,,2025.1.1,59.921538737907404,2025-09-30 13h44.47.354168 +0530,
181,0,181,"[np.float64(0.3975), np.float64(0.4066666666666667)]","[np.float64(-0.1775), np.float64(-0.1775)]","[1, 1]","[0, 0]","[0, 0]","[0.9250291000062134, 1.524544900006731]","[None, 'Target']",181,0,181,0,220.13595260000147,,10,220.12375740001153,220.13595260000147,220.13595260000147,0.026131100006750785,221.14544060001208,221.6484793999989,"[np.float64(0.3975), np.float64(0.4066666666666667)]","[np.float64(-0.1775), np.float64(-0.1775)]","[1, 1]","[0, 0]","[0, 0]","[0.9250291000062134, 1.524544900006731]","[None, 'Target']",Participant 4,001,2025-09-30_13h44.30.212,visual search task,,2025.1.1,59.921538737907404,2025-09-30 13h44.47.354168 +0530,
182,0,182,[np.float64(0.29)],[np.float64(-0.4658333333333333)],[1],[0],[0],[1.48984670000209],['Target'],182,0,182,0,221.69044470001245,,10,221.67719750000106,221.69044470001245,221.69044470001245,0.02851119999832008,222.69748750000144,223.16729080000368,[np.float64(0.29)],[np.float64(-0.4658333333333333)],[1],[0],[0],[1.48984670000209],['Target'],Participant 4,001,2025-09-30_13h44.30.212,visual search task,,2025.1.1,59.921538737907404,2025-09-30 13h44.47.354168 +0530,
183,0,183,[np.float64(-0.20333333333333334)],[np.float64(0.17583333333333334)],[1],[0],[0],[1.2910594999993918],['Target'],183,0,183,0,223.20729510000092,,10,223.19534170000406,223.20729510000092,223.20729510000092,0.02779989999544341,224.21549139999843,224.4866047000105,[np.float64(-0.20333333333333334)],[np.float64(0.17583333333333334)],[1],[0],[0],[1.2910594999993918],['Target'],Participant 4,001,2025-09-30_13h44.30.212,visual search task,,2025.1.1,59.921538737907404,2025-09-30 13h44.47.354168 +0530,
184,0,184,[np.float64(-0.0125)],[np.float64(-0.2775)],[1],[0],[0],[0.8345133999973768],['Target'],184,0,184,0,224.5104919000005,,5,224.50131380000676,224.5104919000005,224.5104919000005,0.014481999998679385,,225.33603240000957,[np.float64(-0.0125)],[np.float64(-0.2775)],[1],[0],[0],[0.8345133999973768],['Target'],Participant 4,001,2025-09-30_13h44.30.212,visual search task,,2025.1.1,59.921538737907404,2025-09-30 13h44.47.354168 +0530,
185,0,185,[np.float64(-0.20833333333333334)],[np.float64(0.15583333333333332)],[1],[0],[0],[1.0731081000121776],['Target'],185,0,185,0,225.37342470001022,,10,225.36199760000454,225.37342470001022,225.37342470001022,0.02584049999131821,226.38466789999802,226.4353201000049,[np.float64(-0.20833333333333334)],[np.float64(0.15583333333333332)],[1],[0],[0],[1.0731081000121776],['Target'],Participant 4,001,2025-09-30_13h44.30.212,visual search task,,2025.1.1,59.921538737907404,2025-09-30 13h44.47.354168 +0530,
186,0,186,"[np.float64(0.3025), np.float64(0.285)]","[np.float64(0.3516666666666667), np.float64(0.3458333333333333)]","[1, 1]","[0, 0]","[0, 0]","[0.9284012999996776, 1.4798384000023361]","[None, 'Target']",186,0,186,0,226.47111340000993,,10,226.4593545000098,226.47111340000993,226.47111340000993,0.023894300000392832,227.48589080000238,227.93939900000987,"[np.float64(0.3025), np.float64(0.285)]","[np.float64(0.3516666666666667), np.float64(0.3458333333333333)]","[1, 1]","[0, 0]","[0, 0]","[0.9284012999996776, 1.4798384000023361]","[None, 'Target']",Participant 4,001,2025-09-30_13h44.30.212,visual search task,,2025.1.1,59.921538737907404,2025-09-30 13h44.47.354168 +0530,
187,0,187,[np.float64(0.21)],[np.float64(0.028333333333333332)],[1],[0],[0],[1.3410021000017878],['Target'],187,0,187,0,227.97735180000018,,10,227.9646250000078,227.97735180000018,227.97735180000018,0.024852099988493137,228.98800850000407,229.30581960000563,[np.float64(0.21)],[np.float64(0.028333333333333332)],[1],[0],[0],[1.3410021000017878],['Target'],Participant 4,001,2025-09-30_13h44.30.212,visual search task,,2025.1.1,59.921538737907404,2025-09-30 13h44.47.354168 +0530,
