delay,freq,condition,thisN,thisTrialN,thisRepN,key_resp.keys,key_resp.rt,key_resp.duration,textbox.text,button.numClicks,button.timesOn,button.timesOff,trials.thisRepN,trials.thisTrialN,trials.thisN,trials.thisIndex,thisRow.t,notes,trial.started,polygon.started,polygon_2.started,key_resp.started,polygon.stopped,trial.stopped,trials.key_resp.keys,trials.key_resp.rt,trials.key_resp.duration,beep.started,sound_1.started,sound_1.stopped,beep.stopped,response.started,text.started,textbox.started,button.started,response.stopped,trials.textbox.text,trials.button.numClicks,trials.button.timesOn,trials.button.timesOff,participant,session,date,expName,expVersion,psychopyVersion,frameRate,expStart
0.7,1000,exp,0,0,0,space,2.6046616,None,"300
",1,[3.77076099999249],[3.770772699994268],0,0,0,8,0.2442574,,0.0734529,0.2442574,1.0123859,1.0123859,1.2473055,3.6323395,space,2.6046616,None,3.6332478,4.332662067,4.6508878,4.6287333,4.6297525,4.6508878,4.6508878,4.6508878,8.421978,"300
",1,[3.77076099999249],[3.770772699994268],Participant_01,1,2025-11-10_12h43.05.183,Intentional binding_LAB,,2025.1.1,59.73230371,2025-11-10 12h43.20.345499 +0530
0.4,1000,exp,1,1,0,space,2.9297991,None,400,1,[2.359164099994814],[2.3591741000127513],0,1,1,4,8.4368299,,8.4223368,8.4368299,9.4376641,9.4376641,9.4376641,12.3780975,space,2.9297991,None,12.3789465,12.77736377,13.0863824,13.0741482,13.0747999,13.0863824,13.0863824,13.0863824,15.4459255,400,1,[2.359164099994814],[2.3591741000127513],Participant_01,1,2025-11-10_12h43.05.183,Intentional binding_LAB,,2025.1.1,59.73230371,2025-11-10 12h43.20.345499 +0530
0.1,400,unexp,2,2,0,space,4.6548554,None,200,1,[7.281503200007137],[7.28151179998531],0,2,2,0,15.4615836,,15.4462591,15.4615836,16.4459938,16.4459938,16.4627197,21.1013928,space,4.6548554,None,21.1021892,21.20208797,21.5113554,21.49759,21.4980235,21.5113554,21.5113554,21.5113554,28.7931594,200,1,[7.281503200007137],[7.28151179998531],Participant_01,1,2025-11-10_12h43.05.183,Intentional binding_LAB,,2025.1.1,59.73230371,2025-11-10 12h43.20.345499 +0530
0.4,1000,exp,3,3,0,space,1.3080244,None,400,1,[1.8705686000175774],[1.8705800000170711],0,3,3,7,28.809136,,28.7934205,28.809136,29.7958224,29.7958224,29.8125878,31.113551,space,1.3080244,None,31.1142326,31.52970007,31.8450337,31.8324545,31.8329833,31.8450337,31.8450337,31.8450337,33.7159183,400,1,[1.8705686000175774],[1.8705800000170711],Participant_01,1,2025-11-10_12h43.05.183,Intentional binding_LAB,,2025.1.1,59.73230371,2025-11-10 12h43.20.345499 +0530
0.1,1000,exp,4,4,0,space,4.5517548,None,100,1,[2.6505811999959406],[2.6505917999893427],0,4,4,3,33.7307717,,33.7162738,33.7307717,34.7159089,34.7159089,34.7327004,39.2721457,space,4.5517548,None,39.2726833,39.38740647,39.7081578,39.6924375,39.693214,39.7081578,39.7081578,39.7081578,42.3590936,100,1,[2.6505811999959406],[2.6505917999893427],Participant_01,1,2025-11-10_12h43.05.183,Intentional binding_LAB,,2025.1.1,59.73230371,2025-11-10 12h43.20.345499 +0530
0.7,1000,exp,5,5,0,space,4.0569603,None,300,1,[3.640535499987891],[3.6405470999889076],0,5,5,5,42.3745343,,42.35941,42.3745343,43.3751245,43.3751245,43.3751245,47.4475132,space,4.0569603,None,47.4480855,48.14906197,48.4617966,48.4489516,48.4495795,48.4617966,48.4617966,48.4617966,52.1026841,300,1,[3.640535499987891],[3.6405470999889076],Participant_01,1,2025-11-10_12h43.05.183,Intentional binding_LAB,,2025.1.1,59.73230371,2025-11-10 12h43.20.345499 +0530
0.1,1000,exp,6,6,0,space,2.4541589,None,200,1,[3.19327489999705],[3.1932846999843605],0,6,6,9,52.1186102,,52.1029888,52.1186102,53.1031262,53.1031262,53.1192858,55.5729149,space,2.4541589,None,55.5737975,55.67235127,55.9827759,55.9701616,55.9708267,55.9827759,55.9827759,55.9827759,59.1764572,200,1,[3.19327489999705],[3.1932846999843605],Participant_01,1,2025-11-10_12h43.05.183,Intentional binding_LAB,,2025.1.1,59.73230371,2025-11-10 12h43.20.345499 +0530
0.4,1000,exp,7,7,0,space,3.7675435,None,400,1,[2.4606104000122286],[2.4606216000101995],0,7,7,10,59.1932009,,59.1768512,59.1932009,60.1772075,60.1772075,60.1918532,63.9488736,space,3.7675435,None,63.949612,64.34828537,64.6586095,64.6466459,64.6470698,64.6586095,64.6586095,64.6586095,67.1195388,400,1,[2.4606104000122286],[2.4606216000101995],Participant_01,1,2025-11-10_12h43.05.183,Intentional binding_LAB,,2025.1.1,59.73230371,2025-11-10 12h43.20.345499 +0530
0.1,1000,exp,8,8,0,space,3.2327057,None,150,1,[4.518179599981522],[4.5181928999954835],0,8,8,6,67.134478,,67.1198484,67.134478,68.1195246,68.1195246,68.1340177,71.3558531,space,3.2327057,None,71.356414,71.45654447,71.7606642,71.7491965,71.7496122,71.7606642,71.7606642,71.7606642,76.2791972,150,1,[4.518179599981522],[4.5181928999954835],Participant_01,1,2025-11-10_12h43.05.183,Intentional binding_LAB,,2025.1.1,59.73230371,2025-11-10 12h43.20.345499 +0530
0.7,400,unexp,9,9,0,space,0.4000941,None,600,1,[2.9272637000249233],[2.9272743000183254],0,9,9,2,76.2944312,,76.2795392,76.2944312,77.2813544,77.2813544,77.2972543,77.6972004,space,0.4000941,None,77.6977943,78.39792747,78.7070646,78.6951026,78.6957062,78.7070646,78.7070646,78.7070646,81.6346173,600,1,[2.9272637000249233],[2.9272743000183254],Participant_01,1,2025-11-10_12h43.05.183,Intentional binding_LAB,,2025.1.1,59.73230371,2025-11-10 12h43.20.345499 +0530
0.4,400,unexp,10,10,0,space,0.6592529,None,600,1,[2.659416299982695],[2.6594247999892104],0,10,10,1,81.6502909,,81.634914,81.6502909,82.6354451,82.6354451,82.6527525,83.3037493,space,0.6592529,None,83.3044318,83.70354697,84.0145622,84.0018623,84.0025239,84.0145622,84.0145622,84.0145622,86.6742697,600,1,[2.659416299982695],[2.6594247999892104],Participant_01,1,2025-11-10_12h43.05.183,Intentional binding_LAB,,2025.1.1,59.73230371,2025-11-10 12h43.20.345499 +0530
0.7,1000,exp,11,11,0,space,1.1855622,None,500,1,[3.8599317999905907],[3.8599424999847542],0,11,11,11,86.6897427,,86.674508,86.6897427,87.6752086,87.6752086,87.6921086,88.8772503,space,1.1855622,None,88.8781316,89.57755747,89.8883311,89.8747466,89.8753792,89.8883311,89.8883311,89.8883311,93.7486066,500,1,[3.8599317999905907],[3.8599424999847542],Participant_01,1,2025-11-10_12h43.05.183,Intentional binding_LAB,,2025.1.1,59.73230371,2025-11-10 12h43.20.345499 +0530
0.1,400,unexp,12,0,1,space,1.0933402,None,200,1,[2.20161979997647],[2.201630199997453],1,0,12,0,93.7640745,,93.7490644,93.7640745,94.7491545,94.7491545,94.765388,95.8517018,space,1.0933402,None,95.8523764,95.95125237,96.2686628,96.2565656,96.2570432,96.2686628,96.2686628,96.2686628,98.4706406,200,1,[2.20161979997647],[2.201630199997453],Participant_01,1,2025-11-10_12h43.05.183,Intentional binding_LAB,,2025.1.1,59.73230371,2025-11-10 12h43.20.345499 +0530
0.4,400,unexp,13,1,1,space,0.6953612,None,200,1,[2.8541986999916844],[2.8542088999820407],1,1,13,1,98.4858811,,98.4709867,98.4858811,99.4721215,99.4721215,99.4888627,100.1720672,space,0.6953612,None,100.1727512,100.5738583,100.8877396,100.8741422,100.8747831,100.8877396,100.8877396,100.8877396,103.7423,200,1,[2.8541986999916844],[2.8542088999820407],Participant_01,1,2025-11-10_12h43.05.183,Intentional binding_LAB,,2025.1.1,59.73230371,2025-11-10 12h43.20.345499 +0530
0.4,1000,exp,14,2,1,space,5.1007901,None,500,1,[4.31435749999946],[4.314367599989055],1,2,14,4,103.758139,,103.7434971,103.758139,104.7431914,104.7431914,104.7612338,109.8489478,space,5.1007901,None,109.8497962,110.2494698,110.5565786,110.5438883,110.5445819,110.5565786,110.5565786,110.5565786,114.8712265,500,1,[4.31435749999946],[4.314367599989055],Participant_01,1,2025-11-10_12h43.05.183,Intentional binding_LAB,,2025.1.1,59.73230371,2025-11-10 12h43.20.345499 +0530
0.7,1000,exp,15,3,1,space,2.8720725,None,600,1,[5.027281199989375],[5.027289599995129],1,3,15,11,114.8866197,,114.8715274,114.8866197,115.8729615,115.8729615,115.8903222,118.7588311,space,2.8720725,None,118.7594421,119.4592258,119.7715672,119.7589266,119.7596125,119.7715672,119.7715672,119.7715672,124.7991676,600,1,[5.027281199989375],[5.027289599995129],Participant_01,1,2025-11-10_12h43.05.183,Intentional binding_LAB,,2025.1.1,59.73230371,2025-11-10 12h43.20.345499 +0530
0.4,1000,exp,16,4,1,space,3.0806897,None,400,1,[5.297836099984124],[5.297844999993686],1,4,16,7,124.8153162,,124.7994423,124.8153162,125.8003094,125.8003094,125.8173305,128.8854988,space,3.0806897,None,128.8860422,129.2871731,129.5951563,129.5815095,129.5821469,129.5951563,129.5951563,129.5951563,134.893311,400,1,[5.297836099984124],[5.297844999993686],Participant_01,1,2025-11-10_12h43.05.183,Intentional binding_LAB,,2025.1.1,59.73230371,2025-11-10 12h43.20.345499 +0530
0.1,1000,exp,17,5,1,space,5.9597171,None,200,1,[5.3429678000102285],[5.342979500012007],1,5,17,3,134.9092142,,134.8936795,134.9092142,135.8965888,135.8965888,135.9128286,141.8672378,space,5.9597171,None,141.867817,141.9669752,142.2805816,142.2616587,142.2622422,142.2805816,142.2805816,142.2805816,147.6239292,200,1,[5.3429678000102285],[5.342979500012007],Participant_01,1,2025-11-10_12h43.05.183,Intentional binding_LAB,,2025.1.1,59.73230371,2025-11-10 12h43.20.345499 +0530
0.7,400,unexp,18,6,1,space,127.1306214,None,700,1,[2.4962780000059865],[2.4962915999931283],1,6,18,2,147.6396565,,147.6243797,147.6396565,148.6256303,148.6256303,148.6422333,275.7668763,space,127.1306214,None,275.7676107,276.481739,276.7878746,276.7752077,276.77575,276.7878746,276.7878746,276.7878746,279.2845265,700,1,[2.4962780000059865],[2.4962915999931283],Participant_01,1,2025-11-10_12h43.05.183,Intentional binding_LAB,,2025.1.1,59.73230371,2025-11-10 12h43.20.345499 +0530
0.1,1000,exp,19,7,1,space,4.1679129,None,200,1,[10.395332899992354],[10.395344599994132],1,7,19,6,279.3003211,,279.284867,279.3003211,280.2856494,280.2856494,280.3012267,284.4586052,space,4.1679129,None,284.4593226,284.5586875,284.8731744,284.8608864,284.8616041,284.8731744,284.8731744,284.8731744,295.2688539,200,1,[10.395332899992354],[10.395344599994132],Participant_01,1,2025-11-10_12h43.05.183,Intentional binding_LAB,,2025.1.1,59.73230371,2025-11-10 12h43.20.345499 +0530
0.4,1000,exp,20,8,1,space,0.8209805,None,200,1,[2.590483400010271],[2.59049309999682],1,8,20,10,295.2850214,,295.2691761,295.2850214,296.2686103,296.2686103,296.2853109,297.1046145,space,0.8209805,None,297.1053057,297.5055169,297.8186182,297.8057107,297.8063,297.8186182,297.8186182,297.8186182,300.4094236,200,1,[2.590483400010271],[2.59049309999682],Participant_01,1,2025-11-10_12h43.05.183,Intentional binding_LAB,,2025.1.1,59.73230371,2025-11-10 12h43.20.345499 +0530
0.7,1000,exp,21,9,1,space,0.4404519,None,600,1,[2.3174007999768946],[2.3174086999788415],1,9,21,5,300.4239942,,300.4096743,300.4239942,301.4089839,301.4089839,301.4256239,301.8602887,space,0.4404519,None,301.8609788,302.5628237,302.878273,302.8647004,302.8652735,302.878273,302.878273,302.878273,305.1959671,600,1,[2.3174007999768946],[2.3174086999788415],Participant_01,1,2025-11-10_12h43.05.183,Intentional binding_LAB,,2025.1.1,59.73230371,2025-11-10 12h43.20.345499 +0530
0.1,1000,exp,22,10,1,space,0.8093353,None,300,1,[4.071769799978938],[4.071779999998398],1,10,22,9,305.212966,,305.1962382,305.212966,306.1976914,306.1976914,306.2144784,307.0166945,space,0.8093353,None,307.0175627,307.132368,307.4486043,307.4330061,307.4335391,307.4486043,307.4486043,307.4486043,311.5206966,300,1,[4.071769799978938],[4.071779999998398],Participant_01,1,2025-11-10_12h43.05.183,Intentional binding_LAB,,2025.1.1,59.73230371,2025-11-10 12h43.20.345499 +0530
0.7,1000,exp,23,11,1,space,0.5224851,None,750,1,[1.7723156999854837],[1.7723262999788858],1,11,23,8,311.5356878,,311.5209815,311.5356878,312.5210374,312.5210374,312.5381032,313.0555582,space,0.5224851,None,313.0562579,313.7561241,314.0692455,314.0564169,314.0570333,314.0692455,314.0692455,314.0692455,315.8420415,750,1,[1.7723156999854837],[1.7723262999788858],Participant_01,1,2025-11-10_12h43.05.183,Intentional binding_LAB,,2025.1.1,59.73230371,2025-11-10 12h43.20.345499 +0530
0.4,1000,exp,24,0,2,space,0.4194789,None,300,1,[4.5003686000127345],[4.500378099997761],2,0,24,10,315.8577825,,315.842387,315.8577825,316.8580259,316.8580259,316.8580259,317.2930452,space,0.4194789,None,317.2937805,317.6924877,317.9983586,317.9868527,317.9872781,317.9983586,317.9983586,317.9983586,322.4990469,300,1,[4.5003686000127345],[4.500378099997761],Participant_01,1,2025-11-10_12h43.05.183,Intentional binding_LAB,,2025.1.1,59.73230371,2025-11-10 12h43.20.345499 +0530
0.7,1000,exp,25,1,2,space,0.6627182,None,400,1,[3.957983800006332],[3.957993999996688],2,1,25,5,322.5144203,,322.4992992,322.5144203,323.4990868,323.4990868,323.5162934,324.1677986,space,0.6627182,None,324.1683333,324.8675725,325.1820976,325.1687283,325.1693341,325.1820976,325.1820976,325.1820976,329.1403898,400,1,[3.957983800006332],[3.957993999996688],Participant_01,1,2025-11-10_12h43.05.183,Intentional binding_LAB,,2025.1.1,59.73230371,2025-11-10 12h43.20.345499 +0530
0.1,1000,exp,26,2,2,space,0.2841769,None,100,1,[2.0259032000030857],[2.025913199991919],2,2,26,6,329.1549322,,329.1407295,329.1549322,330.1414233,330.1414233,330.1578015,330.4266187,space,0.2841769,None,330.4273701,330.5417576,330.8508188,330.83831,330.8389182,330.8508188,330.8508188,330.8508188,332.8770754,100,1,[2.0259032000030857],[2.025913199991919],Participant_01,1,2025-11-10_12h43.05.183,Intentional binding_LAB,,2025.1.1,59.73230371,2025-11-10 12h43.20.345499 +0530
0.4,1000,exp,27,3,2,space,0.2864678,None,300,1,[1.9951472000102513],[1.995155100012198],2,3,27,7,332.8929807,,332.8774113,332.8929807,333.8785754,333.8785754,333.89623,334.1793842,space,0.2864678,None,334.1800589,334.5951984,334.9023092,334.8889599,334.8896025,334.9023092,334.9023092,334.9023092,336.897734,300,1,[1.9951472000102513],[1.995155100012198],Participant_01,1,2025-11-10_12h43.05.183,Intentional binding_LAB,,2025.1.1,59.73230371,2025-11-10 12h43.20.345499 +0530
0.1,1000,exp,28,4,2,space,0.4143228,None,100,1,[2.1279825000092387],[2.1279943000117783],2,4,28,3,336.9137648,,336.8979901,336.9137648,337.8990832,337.8990832,337.9161031,338.3161611,space,0.4143228,None,338.3168564,338.4163918,338.7238861,338.7113323,338.7119796,338.7238861,338.7238861,338.7238861,340.852184,100,1,[2.1279825000092387],[2.1279943000117783],Participant_01,1,2025-11-10_12h43.05.183,Intentional binding_LAB,,2025.1.1,59.73230371,2025-11-10 12h43.20.345499 +0530
0.7,400,unexp,29,5,2,space,0.1018048,None,700,1,[2.0084403999790084],[2.00845069999923],2,5,29,2,340.8678056,,340.8524951,340.8678056,341.8542713,341.8542713,341.8708825,341.9699809,space,0.1018048,None,341.9706646,342.6720079,342.9821735,342.9695581,342.9701894,342.9821735,342.9821735,342.9821735,344.990943,700,1,[2.0084403999790084],[2.00845069999923],Participant_01,1,2025-11-10_12h43.05.183,Intentional binding_LAB,,2025.1.1,59.73230371,2025-11-10 12h43.20.345499 +0530
0.4,400,unexp,30,6,2,space,0.7415665,None,600,1,[2.157059199991636],[2.15706830000272],2,6,30,1,345.0063296,,344.9912694,345.0063296,345.9923666,345.9923666,346.0093912,346.7438883,space,0.7415665,None,346.7445749,347.1593009,347.4712516,347.4589768,347.4596268,347.4712516,347.4712516,347.4712516,349.6286069,600,1,[2.157059199991636],[2.15706830000272],Participant_01,1,2025-11-10_12h43.05.183,Intentional binding_LAB,,2025.1.1,59.73230371,2025-11-10 12h43.20.345499 +0530
0.7,1000,exp,31,7,2,space,0.3009274,None,700,1,[5.56362070000614],[5.563630699994974],2,7,31,11,349.6460564,,349.6288804,349.6460564,350.6294036,350.6294036,350.6454278,350.9320942,space,0.3009274,None,350.9329826,351.6318304,351.9411646,351.9281191,351.9288202,351.9411646,351.9411646,351.9411646,357.5050934,700,1,[5.56362070000614],[5.563630699994974],Participant_01,1,2025-11-10_12h43.05.183,Intentional binding_LAB,,2025.1.1,59.73230371,2025-11-10 12h43.20.345499 +0530
0.1,400,unexp,32,8,2,space,0.5602734,None,300,1,[2.3882112999854144],[2.388221400004113],2,8,32,0,357.5201337,,357.5054156,357.5201337,358.521574,358.521574,358.521574,359.0885612,space,0.5602734,None,359.0894174,359.1879944,359.5031444,359.4907152,359.4912491,359.5031444,359.5031444,359.5031444,361.8917124,300,1,[2.3882112999854144],[2.388221400004113],Participant_01,1,2025-11-10_12h43.05.183,Intentional binding_LAB,,2025.1.1,59.73230371,2025-11-10 12h43.20.345499 +0530
0.7,1000,exp,33,9,2,space,0.5526859,None,700,1,[7.832784199999878],[7.832795900001656],2,9,33,8,361.9080226,,361.8919905,361.9080226,362.8922124,362.8922124,362.9102217,363.460742,space,0.5526859,None,363.4614227,364.1612152,364.4705283,364.4583034,364.4589319,364.4705283,364.4705283,364.4705283,372.3036356,700,1,[7.832784199999878],[7.832795900001656],Participant_01,1,2025-11-10_12h43.05.183,Intentional binding_LAB,,2025.1.1,59.73230371,2025-11-10 12h43.20.345499 +0530
0.4,1000,exp,34,10,2,space,0.5721464,None,500,1,[2.37262660000124],[2.3726376999984495],2,10,34,4,372.3198703,,372.3039551,372.3198703,373.3057249,373.3057249,373.3225722,373.8888082,space,0.5721464,None,373.8899838,374.2881561,374.6032469,374.5897249,374.5903116,374.6032469,374.6032469,374.6032469,376.9761652,500,1,[2.37262660000124],[2.3726376999984495],Participant_01,1,2025-11-10_12h43.05.183,Intentional binding_LAB,,2025.1.1,59.73230371,2025-11-10 12h43.20.345499 +0530
0.1,1000,exp,35,11,2,space,0.694972,None,100,1,[4.2732595000125],[4.273272900027223],2,11,35,9,376.9915255,,376.9764876,376.9915255,377.9767457,377.9767457,377.9931431,378.6777489,space,0.694972,None,378.6784264,378.7769408,379.0922655,379.0798191,379.0804586,379.0922655,379.0922655,379.0922655,383.3659294,100,1,[4.2732595000125],[4.273272900027223],Participant_01,1,2025-11-10_12h43.05.183,Intentional binding_LAB,,2025.1.1,59.73230371,2025-11-10 12h43.20.345499 +0530
0.7,400,unexp,36,0,3,space,0.7429593,None,700,1,[2.81133569998201],[2.811343899986241],3,0,36,2,383.381786,,383.366322,383.381786,384.3658802,384.3658802,384.3834175,385.117047,space,0.7429593,None,385.1176964,385.8185991,386.1269219,386.1120289,386.1126257,386.1269219,386.1269219,386.1269219,388.9385426,700,1,[2.81133569998201],[2.811343899986241],Participant_01,1,2025-11-10_12h43.05.183,Intentional binding_LAB,,2025.1.1,59.73230371,2025-11-10 12h43.20.345499 +0530
0.1,400,unexp,37,1,3,space,0.4791453,None,200,1,[3.0558147999981884],[3.0558264999999665],3,1,37,0,388.953838,,388.9388047,388.953838,389.9402502,389.9402502,389.9563163,390.4248696,space,0.4791453,None,390.4255761,390.5398154,390.8540321,390.8413649,390.8419978,390.8540321,390.8540321,390.8540321,393.9101766,200,1,[3.0558147999981884],[3.0558264999999665],Participant_01,1,2025-11-10_12h43.05.183,Intentional binding_LAB,,2025.1.1,59.73230371,2025-11-10 12h43.20.345499 +0530
0.7,1000,exp,38,2,3,space,0.9047496,None,750,1,[4.774275900010252],[4.774286700005177],3,2,38,11,393.926481,,393.9105222,393.926481,394.9113873,394.9113873,394.9285849,395.8295196,space,0.9047496,None,395.8302024,396.529961,396.844813,396.8325787,396.8330847,396.844813,396.844813,396.844813,401.6193863,750,1,[4.774275900010252],[4.774286700005177],Participant_01,1,2025-11-10_12h43.05.183,Intentional binding_LAB,,2025.1.1,59.73230371,2025-11-10 12h43.20.345499 +0530
0.4,1000,exp,39,3,3,space,0.6642737,None,600,1,[2.3428060000005644],[2.342817800003104],3,3,39,10,401.6350856,,401.6196907,401.6350856,402.6195462,402.6195462,402.6367592,403.2893286,space,0.6642737,None,403.2900027,403.70464,404.0149951,404.0008548,404.0014458,404.0149951,404.0149951,404.0149951,406.3581709,600,1,[2.3428060000005644],[2.342817800003104],Participant_01,1,2025-11-10_12h43.05.183,Intentional binding_LAB,,2025.1.1,59.73230371,2025-11-10 12h43.20.345499 +0530
0.1,1000,exp,40,4,3,space,0.6819005,None,100,1,[2.822317300015129],[2.8223282000108156],3,4,40,3,406.3727132,,406.3584964,406.3727132,407.3587159,407.3587159,407.3749998,408.0435625,space,0.6819005,None,408.0442334,408.1594039,408.4739472,408.4593082,408.4599179,408.4739472,408.4739472,408.4739472,411.2965934,100,1,[2.822317300015129],[2.8223282000108156],Participant_01,1,2025-11-10_12h43.05.183,Intentional binding_LAB,,2025.1.1,59.73230371,2025-11-10 12h43.20.345499 +0530
0.4,1000,exp,41,5,3,space,0.4793242,None,300,1,[4.607539899996482],[4.607550799992168],3,5,41,7,411.3118435,,411.2969625,411.3118435,412.2982844,412.2982844,412.3151007,412.7809103,space,0.4793242,None,412.781581,413.1838232,413.4951437,413.4821562,413.4827652,413.4951437,413.4951437,413.4951437,418.1030332,300,1,[4.607539899996482],[4.607550799992168],Participant_01,1,2025-11-10_12h43.05.183,Intentional binding_LAB,,2025.1.1,59.73230371,2025-11-10 12h43.20.345499 +0530
0.4,1000,exp,42,6,3,space,0.800647,None,400,1,[2.7225276000099257],[2.722538900008658],3,6,42,4,418.1196882,,418.1033817,418.1196882,419.1048893,419.1048893,419.1212503,419.9217081,space,0.800647,None,419.922329,420.3225015,420.6364048,420.6239037,420.6245025,420.6364048,420.6364048,420.6364048,423.3592329,400,1,[2.7225276000099257],[2.722538900008658],Participant_01,1,2025-11-10_12h43.05.183,Intentional binding_LAB,,2025.1.1,59.73230371,2025-11-10 12h43.20.345499 +0530
0.7,1000,exp,43,7,3,space,0.8923517,None,500,1,[2.471886799990898],[2.471898299991153],3,7,43,8,423.3750101,,423.3595502,423.3750101,424.3605044,424.3605044,424.3779169,425.2618666,space,0.8923517,None,425.262564,425.9621814,426.2769949,426.2636841,426.2642757,426.2769949,426.2769949,426.2769949,428.7493223,500,1,[2.471886799990898],[2.471898299991153],Participant_01,1,2025-11-10_12h43.05.183,Intentional binding_LAB,,2025.1.1,59.73230371,2025-11-10 12h43.20.345499 +0530
0.1,1000,exp,44,8,3,space,2.276575,None,100,1,[2.5793862999998964],[2.579396600020118],3,8,44,9,428.7645694,,428.7496489,428.7645694,429.7505028,429.7505028,429.7675454,432.0361301,space,2.276575,None,432.0368673,432.1369324,432.4424074,432.4302995,432.4308395,432.4424074,432.4424074,432.4424074,435.0220963,100,1,[2.5793862999998964],[2.579396600020118],Participant_01,1,2025-11-10_12h43.05.183,Intentional binding_LAB,,2025.1.1,59.73230371,2025-11-10 12h43.20.345499 +0530
0.7,1000,exp,45,9,3,space,0.5071444,None,700,1,[3.6395767999929376],[3.639586099976441],3,9,45,5,435.0377308,,435.0224092,435.0377308,436.022637,436.022637,436.039679,436.5428371,space,0.5071444,None,436.5435126,437.2420388,437.5567732,437.5444982,437.5450806,437.5567732,437.5567732,437.5567732,441.1966211,700,1,[3.6395767999929376],[3.639586099976441],Participant_01,1,2025-11-10_12h43.05.183,Intentional binding_LAB,,2025.1.1,59.73230371,2025-11-10 12h43.20.345499 +0530
0.1,1000,exp,46,10,3,space,0.4609459,None,600,1,[2.7555305999994744],[2.755540700018173],3,10,46,6,441.2114185,,441.1968674,441.2114185,442.1959654,442.1959654,442.2165971,442.6658273,space,0.4609459,None,442.6664956,442.7806636,443.0952178,443.0813818,443.0819971,443.0952178,443.0952178,443.0952178,445.8510373,600,1,[2.7555305999994744],[2.755540700018173],Participant_01,1,2025-11-10_12h43.05.183,Intentional binding_LAB,,2025.1.1,59.73230371,2025-11-10 12h43.20.345499 +0530
0.4,400,unexp,47,11,3,space,0.9626122,None,500,1,[4.973185699986061],[4.973195300000953],3,11,47,1,445.8673983,,445.8513459,445.8673983,446.8529172,446.8529172,446.8708561,447.8191764,space,0.9626122,None,447.8198468,448.2192613,448.5361198,448.5234757,448.5240952,448.5361198,448.5361198,448.5361198,453.5095947,500,1,[4.973185699986061],[4.973195300000953],Participant_01,1,2025-11-10_12h43.05.183,Intentional binding_LAB,,2025.1.1,59.73230371,2025-11-10 12h43.20.345499 +0530
0.1,400,unexp,48,0,4,space,1.1678157,None,80,1,[3.1373991000000387],[3.1374099999957252],4,0,48,0,453.5251587,,453.5099083,453.5251587,454.5102608,454.5102608,454.5278818,455.6787889,space,1.1678157,None,455.6797164,455.7801665,456.0953636,456.078029,456.0785232,456.0953636,456.0953636,456.0953636,459.2331212,80,1,[3.1373991000000387],[3.1374099999957252],Participant_01,1,2025-11-10_12h43.05.183,Intentional binding_LAB,,2025.1.1,59.73230371,2025-11-10 12h43.20.345499 +0530
0.7,1000,exp,49,1,4,space,0.432501,None,400,1,[3.9648391000228003],[3.9648506000230554],4,1,49,8,459.2475974,,459.2334377,459.2475974,460.2352544,460.2352544,460.2493048,460.6688804,space,0.432501,None,460.6698439,461.3683766,461.6765848,461.6637078,461.6642701,461.6765848,461.6765848,461.6765848,465.6417875,400,1,[3.9648391000228003],[3.9648506000230554],Participant_01,1,2025-11-10_12h43.05.183,Intentional binding_LAB,,2025.1.1,59.73230371,2025-11-10 12h43.20.345499 +0530
0.4,1000,exp,50,2,4,space,0.6229613,None,500,1,[2.4520671000063885],[2.4520773999975063],4,2,50,4,465.6558736,,465.642097,465.6558736,466.6572757,466.6572757,466.6572757,467.2916653,space,0.6229613,None,467.2922004,467.6919087,468.0088297,467.9939226,467.9945991,468.0088297,468.0088297,468.0088297,470.4612373,500,1,[2.4520671000063885],[2.4520773999975063],Participant_01,1,2025-11-10_12h43.05.183,Intentional binding_LAB,,2025.1.1,59.73230371,2025-11-10 12h43.20.345499 +0530
0.1,1000,exp,51,3,4,space,0.6904128,None,80,1,[2.941152699990198],[2.9411637999874074],4,3,51,3,470.4770919,,470.4615515,470.4770919,471.4624682,471.4624682,471.4810795,472.1635655,space,0.6904128,None,472.1642901,472.2795209,472.5928917,472.5772866,472.5780399,472.5928917,472.5928917,472.5928917,475.5343479,80,1,[2.941152699990198],[2.9411637999874074],Participant_01,1,2025-11-10_12h43.05.183,Intentional binding_LAB,,2025.1.1,59.73230371,2025-11-10 12h43.20.345499 +0530
0.7,1000,exp,52,4,4,space,0.3466333,None,450,1,[4.470514399989042],[4.4705271999991965],4,4,52,5,475.549466,,475.5346583,475.549466,476.5517021,476.5517021,476.5517021,476.9009518,space,0.3466333,None,476.9017229,477.6030015,477.9215045,477.9088904,477.9094486,477.9215045,477.9215045,477.9215045,482.3924888,450,1,[4.470514399989042],[4.4705271999991965],Participant_01,1,2025-11-10_12h43.05.183,Intentional binding_LAB,,2025.1.1,59.73230371,2025-11-10 12h43.20.345499 +0530
0.1,1000,exp,53,5,4,space,0.6757275,None,50,1,[3.2755156999919564],[3.2755259000114165],4,5,53,9,482.4064303,,482.3928986,482.4064303,483.407417,483.407417,483.407417,484.0919818,space,0.6757275,None,484.0927138,484.1923394,484.5049332,484.4918663,484.4924914,484.5049332,484.5049332,484.5049332,487.7807332,50,1,[3.2755156999919564],[3.2755259000114165],Participant_01,1,2025-11-10_12h43.05.183,Intentional binding_LAB,,2025.1.1,59.73230371,2025-11-10 12h43.20.345499 +0530
0.7,400,unexp,54,6,4,space,0.6502025,None,700,1,[1.7849025999894366],[1.7849130999820773],4,6,54,2,487.7962549,,487.7810482,487.7962549,488.7798187,488.7798187,488.7973221,489.4325929,space,0.6502025,None,489.4335208,490.1334123,490.4497881,490.4359123,490.4365087,490.4497881,490.4497881,490.4497881,492.2349995,700,1,[1.7849025999894366],[1.7849130999820773],Participant_01,1,2025-11-10_12h43.05.183,Intentional binding_LAB,,2025.1.1,59.73230371,2025-11-10 12h43.20.345499 +0530
0.4,400,unexp,55,7,4,space,0.5380554,None,500,1,[2.2456175000115763],[2.2456259000173304],4,7,55,1,492.2505077,,492.2353054,492.2505077,493.2356449,493.2356449,493.2520137,493.7862136,space,0.5380554,None,493.7868448,494.1884822,494.4953281,494.4811092,494.4816967,494.4953281,494.4953281,494.4953281,496.7412269,500,1,[2.2456175000115763],[2.2456259000173304],Participant_01,1,2025-11-10_12h43.05.183,Intentional binding_LAB,,2025.1.1,59.73230371,2025-11-10 12h43.20.345499 +0530
0.4,1000,exp,56,8,4,space,0.636313,None,550,1,[3.040125799976522],[3.0401357999944594],4,8,56,10,496.7559045,,496.7414618,496.7559045,497.7423089,497.7423089,497.7586345,498.3926511,space,0.636313,None,498.3933229,498.7922773,499.1051534,499.0923186,499.0929107,499.1051534,499.1051534,499.1051534,502.1456139,550,1,[3.040125799976522],[3.0401357999944594],Participant_01,1,2025-11-10_12h43.05.183,Intentional binding_LAB,,2025.1.1,59.73230371,2025-11-10 12h43.20.345499 +0530
0.1,1000,exp,57,9,4,space,0.4143693,None,80,1,[4.372982000000775],[4.372991699987324],4,9,57,6,502.1619049,,502.1459681,502.1619049,503.1458233,503.1458233,503.1628314,503.5639487,space,0.4143693,None,503.564776,503.6796987,503.9957304,503.9837326,503.9842353,503.9957304,503.9957304,503.9957304,508.3690408,80,1,[4.372982000000775],[4.372991699987324],Participant_01,1,2025-11-10_12h43.05.183,Intentional binding_LAB,,2025.1.1,59.73230371,2025-11-10 12h43.20.345499 +0530
0.4,1000,exp,58,10,4,space,0.6743806,None,300,1,[2.9366848000208847],[2.9366977000026964],4,10,58,7,508.3857016,,508.3693714,508.3857016,509.3715358,509.3715358,509.3884463,510.0566443,space,0.6743806,None,510.0573369,510.4714527,510.7886222,510.7749653,510.7755794,510.7886222,510.7886222,510.7886222,513.7257056,300,1,[2.9366848000208847],[2.9366977000026964],Participant_01,1,2025-11-10_12h43.05.183,Intentional binding_LAB,,2025.1.1,59.73230371,2025-11-10 12h43.20.345499 +0530
0.7,1000,exp,59,11,4,space,1.2119049,None,700,1,[1.7930151000036858],[1.7930257999978494],4,11,59,11,513.7417569,,513.7260545,513.7417569,514.7259685,514.7259685,514.7416971,515.9448752,space,1.2119049,None,515.9455696,516.6450326,516.9545788,516.942715,516.9433774,516.9545788,516.9545788,516.9545788,518.7479245,700,1,[1.7930151000036858],[1.7930257999978494],Participant_01,1,2025-11-10_12h43.05.183,Intentional binding_LAB,,2025.1.1,59.73230371,2025-11-10 12h43.20.345499 +0530
0.7,400,unexp,60,0,5,space,0.6619331,None,600,1,[4.058834299998125],[4.058845899999142],5,0,60,2,518.7634761,,518.7482311,518.7634761,519.7483345,519.7483345,519.7646671,520.4166253,space,0.6619331,None,520.4172883,521.1161268,521.4293807,521.4163807,521.4169742,521.4293807,521.4293807,521.4293807,525.4885187,600,1,[4.058834299998125],[4.058845899999142],Participant_01,1,2025-11-10_12h43.05.183,Intentional binding_LAB,,2025.1.1,59.73230371,2025-11-10 12h43.20.345499 +0530
0.4,1000,exp,61,1,5,space,0.6314913,None,500,1,[2.189066899998579],[2.189077199989697],5,1,61,10,525.504493,,525.48886,525.504493,526.4904343,526.4904343,526.5050345,527.1239047,space,0.6314913,None,527.1245977,527.5235191,527.83658,527.8239881,527.8245744,527.83658,527.83658,527.83658,530.0260024,500,1,[2.189066899998579],[2.189077199989697],Participant_01,1,2025-11-10_12h43.05.183,Intentional binding_LAB,,2025.1.1,59.73230371,2025-11-10 12h43.20.345499 +0530
0.1,1000,exp,62,2,5,space,2.5864125,None,400,1,[2.353179400000954],[2.353189499990549],5,2,62,9,530.0435512,,530.0263427,530.0435512,531.0277546,531.0277546,531.0455915,533.6310397,space,2.5864125,None,533.6317487,533.7313141,534.0477159,534.0350188,534.0357075,534.0477159,534.0477159,534.0477159,536.4012978,400,1,[2.353179400000954],[2.353189499990549],Participant_01,1,2025-11-10_12h43.05.183,Intentional binding_LAB,,2025.1.1,59.73230371,2025-11-10 12h43.20.345499 +0530
0.4,1000,exp,63,3,5,space,1.622109,None,450,1,[4.4933957000030205],[4.4934076000063214],5,3,63,4,536.4154728,,536.4016261,536.4154728,537.401801,537.401801,537.4179422,539.0369353,space,1.622109,None,539.0376349,539.4380235,539.7480466,539.7352991,539.7359406,539.7480466,539.7480466,539.7480466,544.2417708,450,1,[4.4933957000030205],[4.4934076000063214],Participant_01,1,2025-11-10_12h43.05.183,Intentional binding_LAB,,2025.1.1,59.73230371,2025-11-10 12h43.20.345499 +0530
0.1,400,unexp,64,4,5,space,0.4107366,None,100,1,[2.4536433999892324],[2.4536530999757815],5,4,64,0,544.258978,,544.2420842,544.258978,545.2425224,545.2425224,545.2593413,545.6611953,space,0.4107366,None,545.6621281,545.7776438,546.0925035,546.0774705,546.0779264,546.0925035,546.0925035,546.0925035,548.5464706,100,1,[2.4536433999892324],[2.4536530999757815],Participant_01,1,2025-11-10_12h43.05.183,Intentional binding_LAB,,2025.1.1,59.73230371,2025-11-10 12h43.20.345499 +0530
0.1,1000,exp,65,5,5,space,0.678068,None,100,1,[4.897173800010933],[4.897181300009834],5,5,65,3,548.562545,,548.5468011,548.562545,549.5492173,549.5492173,549.5631376,550.2336218,space,0.678068,None,550.2342927,550.3507933,550.6571849,550.6434416,550.6440907,550.6571849,550.6571849,550.6571849,555.5546482,100,1,[4.897173800010933],[4.897181300009834],Participant_01,1,2025-11-10_12h43.05.183,Intentional binding_LAB,,2025.1.1,59.73230371,2025-11-10 12h43.20.345499 +0530
0.1,1000,exp,66,6,5,space,0.3090434,None,100,1,[2.277814100001706],[2.2778242000204045],5,6,66,6,555.5709114,,555.5549509,555.5709114,556.5556157,556.5556157,556.5724142,556.8739025,space,0.3090434,None,556.8745942,556.9887081,557.2978477,557.2845765,557.2851641,557.2978477,557.2978477,557.2978477,559.5759555,100,1,[2.277814100001706],[2.2778242000204045],Participant_01,1,2025-11-10_12h43.05.183,Intentional binding_LAB,,2025.1.1,59.73230371,2025-11-10 12h43.20.345499 +0530
0.7,1000,exp,67,7,5,space,1.0403807,None,500,1,[3.6722752999921795],[3.672285999986343],5,7,67,5,559.5916371,,559.576257,559.5916371,560.5776251,560.5776251,560.5945686,561.6287634,space,1.0403807,None,561.629477,562.3300666,562.6443741,562.629926,562.630458,562.6443741,562.6443741,562.6443741,566.3169511,500,1,[3.6722752999921795],[3.672285999986343],Participant_01,1,2025-11-10_12h43.05.183,Intentional binding_LAB,,2025.1.1,59.73230371,2025-11-10 12h43.20.345499 +0530
0.4,400,unexp,68,8,5,space,0.6695388,None,550,1,[2.778727400000207],[2.778737299988279],5,8,68,1,566.331234,,566.3172588,566.331234,567.3178543,567.3178543,567.3352602,568.0031173,space,0.6695388,None,568.0038274,568.4178057,568.726542,568.713828,568.7144702,568.726542,568.726542,568.726542,571.5055979,550,1,[2.778727400000207],[2.778737299988279],Participant_01,1,2025-11-10_12h43.05.183,Intentional binding_LAB,,2025.1.1,59.73230371,2025-11-10 12h43.20.345499 +0530
0.7,1000,exp,69,9,5,space,0.663156,None,700,1,[1.8844521999999415],[1.8844599000003655],5,9,69,8,571.5222694,,571.5060178,571.5222694,572.5070357,572.5070357,572.5234045,573.1733344,space,0.663156,None,573.1740911,573.8742443,574.1918833,574.1776239,574.1782846,574.1918833,574.1918833,574.1918833,576.0766022,700,1,[1.8844521999999415],[1.8844599000003655],Participant_01,1,2025-11-10_12h43.05.183,Intentional binding_LAB,,2025.1.1,59.73230371,2025-11-10 12h43.20.345499 +0530
0.4,1000,exp,70,10,5,space,0.6833084,None,500,1,[4.955515999987256],[4.955526200006716],5,10,70,7,576.0945566,,576.0768574,576.0945566,577.0788843,577.0788843,577.0951609,577.7636064,space,0.6833084,None,577.7645491,578.1636256,578.4797848,578.4666417,578.4672973,578.4797848,578.4797848,578.4797848,583.4355907,500,1,[4.955515999987256],[4.955526200006716],Participant_01,1,2025-11-10_12h43.05.183,Intentional binding_LAB,,2025.1.1,59.73230371,2025-11-10 12h43.20.345499 +0530
0.7,1000,exp,71,11,5,space,1.0315847,None,700,1,[2.1381041999848094],[2.138125299999956],5,11,71,11,583.4512117,,583.4358964,583.4512117,584.4362937,584.4362937,584.452164,585.4708028,space,1.0315847,None,585.4714828,586.1717662,586.4859465,586.4732356,586.4738297,586.4859465,586.4859465,586.4859465,588.6243316,700,1,[2.1381041999848094],[2.138125299999956],Participant_01,1,2025-11-10_12h43.05.183,Intentional binding_LAB,,2025.1.1,59.73230371,2025-11-10 12h43.20.345499 +0530
0.7,1000,exp,72,0,6,space,0.8178508,None,600,1,[2.5778666000114754],[2.5778746000141837],6,0,72,8,588.6400326,,588.6245662,588.6400326,589.6259895,589.6259895,589.6420874,590.4588652,space,0.8178508,None,590.4594986,591.1588958,591.4685876,591.4545849,591.4552264,591.4685876,591.4685876,591.4685876,594.0467404,600,1,[2.5778666000114754],[2.5778746000141837],Participant_01,1,2025-11-10_12h43.05.183,Intentional binding_LAB,,2025.1.1,59.73230371,2025-11-10 12h43.20.345499 +0530
0.7,1000,exp,73,1,6,space,0.574657,None,500,1,[2.9450350000115577],[2.9450434999889694],6,1,73,11,594.0647204,,594.0470263,594.0647204,595.0487407,595.0487407,595.0655464,595.6320433,space,0.574657,None,595.6329773,596.3327069,596.6413332,596.6290864,596.6296809,596.6413332,596.6413332,596.6413332,599.5866955,500,1,[2.9450350000115577],[2.9450434999889694],Participant_01,1,2025-11-10_12h43.05.183,Intentional binding_LAB,,2025.1.1,59.73230371,2025-11-10 12h43.20.345499 +0530
0.4,1000,exp,74,2,6,space,0.8029493,None,300,1,[3.1540924000146333],[3.154102700005751],6,2,74,7,599.6018588,,599.5869346,599.6018588,600.5870585,600.5870585,600.6034754,601.4049042,space,0.8029493,None,601.4057832,601.8058272,602.1213667,602.1083842,602.1090378,602.1213667,602.1213667,602.1213667,605.2757552,300,1,[3.1540924000146333],[3.154102700005751],Participant_01,1,2025-11-10_12h43.05.183,Intentional binding_LAB,,2025.1.1,59.73230371,2025-11-10 12h43.20.345499 +0530
0.4,400,unexp,75,3,6,space,0.5086395,None,400,1,[3.3701341000269167],[3.3701424000028055],6,3,75,1,605.2916345,,605.276059,605.2916345,606.2777114,606.2777114,606.2944215,606.7955616,space,0.5086395,None,606.7962323,607.1947558,607.5108445,607.4978432,607.4985794,607.5108445,607.5108445,607.5108445,610.8812561,400,1,[3.3701341000269167],[3.3701424000028055],Participant_01,1,2025-11-10_12h43.05.183,Intentional binding_LAB,,2025.1.1,59.73230371,2025-11-10 12h43.20.345499 +0530
0.4,1000,exp,76,4,6,space,0.4536084,None,450,1,[3.926546499977121],[3.9265577999758534],6,4,76,4,610.89981,,610.8815204,610.89981,611.8840598,611.8840598,611.9009044,612.350872,space,0.4536084,None,612.3515304,612.750746,613.0620898,613.0484367,613.0490897,613.0620898,613.0620898,613.0620898,616.9889623,450,1,[3.926546499977121],[3.9265577999758534],Participant_01,1,2025-11-10_12h43.05.183,Intentional binding_LAB,,2025.1.1,59.73230371,2025-11-10 12h43.20.345499 +0530
0.1,400,unexp,77,5,6,space,0.3238411,None,100,1,[2.0427380000182893],[2.0427484000101686],6,5,77,0,617.0044737,,616.9892924,617.0044737,617.9882928,617.9882928,618.0052377,618.322716,space,0.3238411,None,618.3232838,618.4226662,618.7336273,618.7215071,618.7219114,618.7336273,618.7336273,618.7336273,620.7766639,100,1,[2.0427380000182893],[2.0427484000101686],Participant_01,1,2025-11-10_12h43.05.183,Intentional binding_LAB,,2025.1.1,59.73230371,2025-11-10 12h43.20.345499 +0530
0.7,1000,exp,78,6,6,space,0.7766249,None,500,1,[2.7521847000170965],[2.75219610001659],6,6,78,5,620.7925424,,620.7770043,620.7925424,621.7761913,621.7761913,621.7943725,622.5625737,space,0.7766249,None,622.563323,623.2622952,623.5796175,623.5664222,623.5670338,623.5796175,623.5796175,623.5796175,626.3321086,500,1,[2.7521847000170965],[2.75219610001659],Participant_01,1,2025-11-10_12h43.05.183,Intentional binding_LAB,,2025.1.1,59.73230371,2025-11-10 12h43.20.345499 +0530
0.7,400,unexp,79,7,6,space,0.9097572,None,500,1,[3.5398705000116024],[3.539881000004243],6,7,79,2,626.3487069,,626.3324171,626.3487069,627.3340771,627.3340771,627.3501846,628.253033,space,0.9097572,None,628.254033,628.9682191,629.2823699,629.2688638,629.2694941,629.2823699,629.2823699,629.2823699,632.8225395,500,1,[3.5398705000116024],[3.539881000004243],Participant_01,1,2025-11-10_12h43.05.183,Intentional binding_LAB,,2025.1.1,59.73230371,2025-11-10 12h43.20.345499 +0530
0.1,1000,exp,80,8,6,space,0.4785075,None,100,1,[2.208834199991543],[2.20884420000948],6,8,80,9,632.8382461,,632.8228718,632.8382461,633.8235405,633.8235405,633.8399986,634.3074439,space,0.4785075,None,634.3082093,634.4074989,634.7173363,634.7048798,634.7055349,634.7173363,634.7173363,634.7173363,636.9265039,100,1,[2.208834199991543],[2.20884420000948],Participant_01,1,2025-11-10_12h43.05.183,Intentional binding_LAB,,2025.1.1,59.73230371,2025-11-10 12h43.20.345499 +0530
0.1,1000,exp,81,9,6,space,0.5132783,None,80,1,[2.227544499997748],[2.227552000025753],6,9,81,6,636.9425118,,636.9268163,636.9425118,637.9282548,637.9282548,637.944787,638.445985,space,0.5132783,None,638.4468936,638.561839,638.8703792,638.8578139,638.8585159,638.8703792,638.8703792,638.8703792,641.0982273,80,1,[2.227544499997748],[2.227552000025753],Participant_01,1,2025-11-10_12h43.05.183,Intentional binding_LAB,,2025.1.1,59.73230371,2025-11-10 12h43.20.345499 +0530
0.1,1000,exp,82,10,6,space,0.4640348,None,80,1,[3.161913799995091],[3.1619237000122666],6,10,82,3,641.1141084,,641.0984715,641.1141084,642.0994558,642.0994558,642.1160605,642.5680604,space,0.4640348,None,642.5687321,642.6832065,642.9910161,642.9778541,642.9784995,642.9910161,642.9910161,642.9910161,646.1532784,80,1,[3.161913799995091],[3.1619237000122666],Participant_01,1,2025-11-10_12h43.05.183,Intentional binding_LAB,,2025.1.1,59.73230371,2025-11-10 12h43.20.345499 +0530
0.4,1000,exp,83,11,6,space,0.4024811,None,200,1,[2.625966299994616],[2.625976199982688],6,11,83,10,646.1688963,,646.1535926,646.1688963,647.1549672,647.1549672,647.1715788,647.5723968,space,0.4024811,None,647.5730567,647.9726261,648.2824788,648.2675605,648.2682186,648.2824788,648.2824788,648.2824788,650.908763,200,1,[2.625966299994616],[2.625976199982688],Participant_01,1,2025-11-10_12h43.05.183,Intentional binding_LAB,,2025.1.1,59.73230371,2025-11-10 12h43.20.345499 +0530
0.7,1000,exp,84,0,7,space,0.8221693,None,600,1,[1.994831999996677],[1.9948432999954093],7,0,84,11,650.924386,,650.909074,650.924386,651.9117837,651.9117837,651.9264467,652.7433536,space,0.8221693,None,652.743981,653.4452517,653.7521446,653.7393836,653.7400285,653.7521446,653.7521446,653.7521446,655.7472747,600,1,[1.994831999996677],[1.9948432999954093],Participant_01,1,2025-11-10_12h43.05.183,Intentional binding_LAB,,2025.1.1,59.73230371,2025-11-10 12h43.20.345499 +0530
0.4,1000,exp,85,1,7,space,1.0390279,None,500,1,[2.2529850999999326],[2.252993100002641],7,1,85,10,655.7639499,,655.7475997,655.7639499,656.7488061,656.7488061,656.7653137,657.8018167,space,1.0390279,None,657.8027358,658.2165026,658.5335571,658.5183921,658.5190221,658.5335571,658.5335571,658.5335571,660.7868047,500,1,[2.2529850999999326],[2.252993100002641],Participant_01,1,2025-11-10_12h43.05.183,Intentional binding_LAB,,2025.1.1,59.73230371,2025-11-10 12h43.20.345499 +0530
0.1,1000,exp,86,2,7,space,0.4375468,None,100,1,[4.022104999981821],[4.022113699989859],7,2,86,6,660.8034583,,660.7870956,660.8034583,661.7870681,661.7870681,661.8047397,662.2393336,space,0.4375468,None,662.2401798,662.3538445,662.6707537,662.6518029,662.6525187,662.6707537,662.6707537,662.6707537,666.6931732,100,1,[4.022104999981821],[4.022113699989859],Participant_01,1,2025-11-10_12h43.05.183,Intentional binding_LAB,,2025.1.1,59.73230371,2025-11-10 12h43.20.345499 +0530
0.1,400,unexp,87,3,7,space,0.5124771,None,100,1,[6.077488500013715],[6.077507000009064],7,3,87,0,666.7081064,,666.6934131,666.7081064,667.6948736,667.6948736,667.7117804,668.2131516,space,0.5124771,None,668.2138286,668.3279937,668.6405038,668.6274655,668.6281296,668.6405038,668.6405038,668.6405038,674.7183476,100,1,[6.077488500013715],[6.077507000009064],Participant_01,1,2025-11-10_12h43.05.183,Intentional binding_LAB,,2025.1.1,59.73230371,2025-11-10 12h43.20.345499 +0530
0.7,1000,exp,88,4,7,space,0.6357712,None,500,1,[2.510862499999348],[2.5108707000035793],7,4,88,5,674.7340808,,674.7186497,674.7340808,675.7205595,675.7205595,675.7368789,676.3709832,space,0.6357712,None,676.3716883,677.0716147,677.3797944,677.3673783,677.367962,677.3797944,677.3797944,677.3797944,679.8909442,500,1,[2.510862499999348],[2.5108707000035793],Participant_01,1,2025-11-10_12h43.05.183,Intentional binding_LAB,,2025.1.1,59.73230371,2025-11-10 12h43.20.345499 +0530
0.1,1000,exp,89,5,7,space,0.3650601,None,200,1,[3.027163099992322],[3.027171299996553],7,5,89,9,679.9061771,,679.8911926,679.9061771,680.8919047,680.8919047,680.9077074,681.2590312,space,0.3650601,None,681.2597107,681.3759249,681.6857473,681.6724427,681.6729734,681.6857473,681.6857473,681.6857473,684.7131607,200,1,[3.027163099992322],[3.027171299996553],Participant_01,1,2025-11-10_12h43.05.183,Intentional binding_LAB,,2025.1.1,59.73230371,2025-11-10 12h43.20.345499 +0530
0.7,1000,exp,90,6,7,space,0.3419612,None,700,1,[1.7356011999945622],[1.7356207999982871],7,6,90,8,684.7288558,,684.7133949,684.7288558,685.7138215,685.7138215,685.7313308,686.065464,space,0.3419612,None,686.0663162,686.7650608,687.0825149,687.0689437,687.069595,687.0825149,687.0825149,687.0825149,688.8183957,700,1,[1.7356011999945622],[1.7356207999982871],Participant_01,1,2025-11-10_12h43.05.183,Intentional binding_LAB,,2025.1.1,59.73230371,2025-11-10 12h43.20.345499 +0530
0.1,1000,exp,91,7,7,space,1.8685192,None,100,1,[2.60283960000379],[2.6028512000048067],7,7,91,3,688.8327445,,688.8186288,688.8327445,689.8199763,689.8199763,689.8346911,691.7042434,space,1.8685192,None,691.7050918,691.8035759,692.119962,692.1061339,692.106771,692.119962,692.119962,692.119962,694.7231261,100,1,[2.60283960000379],[2.6028512000048067],Participant_01,1,2025-11-10_12h43.05.183,Intentional binding_LAB,,2025.1.1,59.73230371,2025-11-10 12h43.20.345499 +0530
0.7,400,unexp,92,8,7,space,0.6405186,None,650,1,[4.202474899997469],[4.2024824999971315],7,8,92,2,694.7400191,,694.7234398,694.7400191,695.726332,695.726332,695.7429712,696.3769008,space,0.6405186,None,696.3776176,697.0764845,697.3953952,697.3817846,697.38243,697.3953952,697.3953952,697.3953952,701.5981365,650,1,[4.202474899997469],[4.2024824999971315],Participant_01,1,2025-11-10_12h43.05.183,Intentional binding_LAB,,2025.1.1,59.73230371,2025-11-10 12h43.20.345499 +0530
0.4,1000,exp,93,9,7,space,0.8257754,None,500,1,[3.363442599977134],[3.363452799996594],7,9,93,4,701.61397,,701.5983878,701.61397,702.5996431,702.5996431,702.6168265,703.4329837,space,0.8257754,None,703.4336368,703.8341892,704.1415628,704.1278138,704.1283987,704.1415628,704.1415628,704.1415628,707.5053475,500,1,[3.363442599977134],[3.363452799996594],Participant_01,1,2025-11-10_12h43.05.183,Intentional binding_LAB,,2025.1.1,59.73230371,2025-11-10 12h43.20.345499 +0530
0.4,400,unexp,94,10,7,space,1.6124672,None,500,1,[2.3609105000214186],[2.360920500010252],7,10,94,1,707.52075,,707.5056635,707.52075,708.504699,708.504699,708.5228433,710.1246939,space,1.6124672,None,710.1256617,710.5243938,710.8330202,710.8197205,710.8204227,710.8330202,710.8330202,710.8330202,713.194215,500,1,[2.3609105000214186],[2.360920500010252],Participant_01,1,2025-11-10_12h43.05.183,Intentional binding_LAB,,2025.1.1,59.73230371,2025-11-10 12h43.20.345499 +0530
0.4,1000,exp,95,11,7,space,0.6283723,None,200,1,[3.0706185000017285],[3.070628299989039],7,11,95,7,713.2102431,,713.1945171,713.2102431,714.196317,714.196317,714.2109794,714.8306469,space,0.6283723,None,714.8313335,715.2457884,715.5623183,715.5479254,715.548537,715.5623183,715.5623183,715.5623183,718.6332194,200,1,[3.0706185000017285],[3.070628299989039],Participant_01,1,2025-11-10_12h43.05.183,Intentional binding_LAB,,2025.1.1,59.73230371,2025-11-10 12h43.20.345499 +0530
0.7,1000,exp,96,0,8,space,0.8161357,None,600,1,[2.1266050999984145],[2.1266164999979082],8,0,96,8,718.6495541,,718.6335385,718.6495541,719.6344635,719.6344635,719.6511678,720.4534049,space,0.8161357,None,720.4541311,721.152922,721.4623416,721.4499429,721.4505966,721.4623416,721.4623416,721.4623416,723.5892274,600,1,[2.1266050999984145],[2.1266164999979082],Participant_01,1,2025-11-10_12h43.05.183,Intentional binding_LAB,,2025.1.1,59.73230371,2025-11-10 12h43.20.345499 +0530
0.7,1000,exp,97,1,8,space,1.8919523,None,400,1,[3.4267276999889873],[3.426738000009209],8,1,97,5,723.6047889,,723.5894798,723.6047889,724.589457,724.589457,724.6064942,726.4919469,space,1.8919523,None,726.4928196,727.191069,727.5030956,727.4885087,727.4892553,727.5030956,727.5030956,727.5030956,730.9301577,400,1,[3.4267276999889873],[3.426738000009209],Participant_01,1,2025-11-10_12h43.05.183,Intentional binding_LAB,,2025.1.1,59.73230371,2025-11-10 12h43.20.345499 +0530
0.7,1000,exp,98,2,8,space,0.7019714,None,700,1,[1.8404103000066243],[1.8404215000045951],8,2,98,11,730.9465066,,730.9304714,730.9465066,731.9311639,731.9311639,731.9479282,732.6493483,space,0.7019714,None,732.6502104,733.3491798,733.6613733,733.6487168,733.6493543,733.6613733,733.6613733,733.6613733,735.5020807,700,1,[1.8404103000066243],[1.8404215000045951],Participant_01,1,2025-11-10_12h43.05.183,Intentional binding_LAB,,2025.1.1,59.73230371,2025-11-10 12h43.20.345499 +0530
0.1,400,unexp,99,3,8,space,0.6191001,None,100,1,[2.2708925000042655],[2.2709040000045206],8,3,99,0,735.5178288,,735.5023751,735.5178288,736.5041095,736.5041095,736.5188543,737.1367742,space,0.6191001,None,737.1374197,737.2369597,737.551952,737.5391573,737.5397872,737.551952,737.551952,737.551952,739.823144,100,1,[2.2708925000042655],[2.2709040000045206],Participant_01,1,2025-11-10_12h43.05.183,Intentional binding_LAB,,2025.1.1,59.73230371,2025-11-10 12h43.20.345499 +0530
0.4,1000,exp,100,4,8,space,0.3496959,None,400,1,[2.5105852000124287],[2.5105962000088766],8,4,100,7,739.8394336,,739.8234544,739.8394336,740.8240697,740.8240697,740.8406612,741.1749406,space,0.3496959,None,741.1756667,741.5757706,741.8836531,741.8710438,741.8717335,741.8836531,741.8836531,741.8836531,744.3945741,400,1,[2.5105852000124287],[2.5105962000088766],Participant_01,1,2025-11-10_12h43.05.183,Intentional binding_LAB,,2025.1.1,59.73230371,2025-11-10 12h43.20.345499 +0530
0.1,1000,exp,101,5,8,space,0.7374186,None,200,1,[2.687692800012883],[2.687703900010092],8,5,101,9,744.4105296,,744.394924,744.4105296,745.3968362,745.3968362,745.4131875,746.1466644,space,0.7374186,None,746.1475515,746.2464091,746.5619658,746.5491027,746.5497349,746.5619658,746.5619658,746.5619658,749.2499547,200,1,[2.687692800012883],[2.687703900010092],Participant_01,1,2025-11-10_12h43.05.183,Intentional binding_LAB,,2025.1.1,59.73230371,2025-11-10 12h43.20.345499 +0530
0.7,400,unexp,102,6,8,space,0.5738893,None,750,1,[5.1152733999770135],[5.1152819999842905],8,6,102,2,749.2656194,,749.2503141,749.2656194,750.2515651,750.2515651,750.2676399,750.8354308,space,0.5738893,None,750.836104,751.5357019,751.8443604,751.8302292,751.8308709,751.8443604,751.8443604,751.8443604,756.9599147,750,1,[5.1152733999770135],[5.1152819999842905],Participant_01,1,2025-11-10_12h43.05.183,Intentional binding_LAB,,2025.1.1,59.73230371,2025-11-10 12h43.20.345499 +0530
0.1,1000,exp,103,7,8,space,0.580455,None,100,1,[5.163202099996852],[5.163212699990254],8,7,103,3,756.9742668,,756.9601567,756.9742668,757.9598688,757.9598688,757.9764537,758.5455246,space,0.580455,None,758.5462018,758.6451105,758.9525811,758.9392609,758.9399974,758.9525811,758.9525811,758.9525811,764.1161011,100,1,[5.163202099996852],[5.163212699990254],Participant_01,1,2025-11-10_12h43.05.183,Intentional binding_LAB,,2025.1.1,59.73230371,2025-11-10 12h43.20.345499 +0530
0.4,400,unexp,104,8,8,space,0.7204255,None,350,1,[5.343141799996374],[5.343151499982923],8,8,104,1,764.1323077,,764.1164205,764.1323077,765.118286,765.118286,765.1346045,765.8523456,space,0.7204255,None,765.8530636,766.2521701,766.5652109,766.5520843,766.5526709,766.5652109,766.5652109,766.5652109,771.9086446,350,1,[5.343141799996374],[5.343151499982923],Participant_01,1,2025-11-10_12h43.05.183,Intentional binding_LAB,,2025.1.1,59.73230371,2025-11-10 12h43.20.345499 +0530
0.4,1000,exp,105,9,8,space,0.5942349,None,400,1,[3.096350400010124],[3.0963616000080947],8,9,105,10,771.9242607,,771.9089379,771.9242607,772.9092704,772.9092704,772.9257903,773.5124917,space,0.5942349,None,773.5133181,773.9286043,774.2351013,774.2222162,774.2228155,774.2351013,774.2351013,774.2351013,777.331792,400,1,[3.096350400010124],[3.0963616000080947],Participant_01,1,2025-11-10_12h43.05.183,Intentional binding_LAB,,2025.1.1,59.73230371,2025-11-10 12h43.20.345499 +0530
0.1,1000,exp,106,10,8,space,0.7214845,None,200,1,[2.1263507999829017],[2.1263611000031233],8,10,106,6,777.3471154,,777.332063,777.3471154,778.3312878,778.3312878,778.3478298,779.0673717,space,0.7214845,None,779.067946,779.1823942,779.4926829,779.4799023,779.4805689,779.4926829,779.4926829,779.4926829,781.6193397,200,1,[2.1263507999829017],[2.1263611000031233],Participant_01,1,2025-11-10_12h43.05.183,Intentional binding_LAB,,2025.1.1,59.73230371,2025-11-10 12h43.20.345499 +0530
0.4,1000,exp,107,11,8,space,0.5657001,None,300,1,[2.288014400022803],[2.2880253000184894],8,11,107,4,781.6344096,,781.6196356,781.6344096,782.6200321,782.6200321,782.6378891,783.186827,space,0.5657001,None,783.1877103,783.5884756,783.9039816,783.889694,783.8903423,783.9039816,783.9039816,783.9039816,786.1922963,300,1,[2.288014400022803],[2.2880253000184894],Participant_01,1,2025-11-10_12h43.05.183,Intentional binding_LAB,,2025.1.1,59.73230371,2025-11-10 12h43.20.345499 +0530
0.7,1000,exp,108,0,9,space,0.5821036,None,500,1,[2.0748130999854766],[2.0748211999889463],9,0,108,11,786.2066894,,786.1925969,786.2066894,787.2091856,787.2091856,787.2091856,787.7931263,space,0.5821036,None,787.793868,788.492408,788.8040867,788.7896245,788.790219,788.8040867,788.8040867,788.8040867,790.8791718,500,1,[2.0748130999854766],[2.0748211999889463],Participant_01,1,2025-11-10_12h43.05.183,Intentional binding_LAB,,2025.1.1,59.73230371,2025-11-10 12h43.20.345499 +0530
0.4,1000,exp,109,1,9,space,0.7134352,None,400,1,[2.611710099998163],[2.6117229999799747],9,1,109,7,790.8953191,,790.8794227,790.8953191,791.8807159,791.8807159,791.8979902,792.5978532,space,0.7134352,None,792.5987918,792.9974482,793.3066611,793.2940666,793.2946725,793.3066611,793.3066611,793.3066611,795.9186795,400,1,[2.611710099998163],[2.6117229999799747],Participant_01,1,2025-11-10_12h43.05.183,Intentional binding_LAB,,2025.1.1,59.73230371,2025-11-10 12h43.20.345499 +0530
0.7,1000,exp,110,2,9,space,0.5498343,None,400,1,[1.7692096999962814],[1.7692181999736931],9,2,110,8,795.9341368,,795.9189227,795.9341368,796.9199765,796.9199765,796.9357754,797.4705076,space,0.5498343,None,797.4714606,798.1699135,798.4872195,798.4740066,798.4746375,798.4872195,798.4872195,798.4872195,800.2566866,400,1,[1.7692096999962814],[1.7692181999736931],Participant_01,1,2025-11-10_12h43.05.183,Intentional binding_LAB,,2025.1.1,59.73230371,2025-11-10 12h43.20.345499 +0530
0.4,1000,exp,111,3,9,space,0.3699047,None,300,1,[1.7563811999862082],[1.7563897999934852],9,3,111,4,800.2722592,,800.2569187,800.2722592,801.2574686,801.2574686,801.2747644,801.6406743,space,0.3699047,None,801.641312,802.040756,802.3553616,802.3417548,802.3423494,802.3553616,802.3553616,802.3553616,804.1120233,300,1,[1.7563811999862082],[1.7563897999934852],Participant_01,1,2025-11-10_12h43.05.183,Intentional binding_LAB,,2025.1.1,59.73230371,2025-11-10 12h43.20.345499 +0530
0.1,1000,exp,112,4,9,space,0.6133188,None,200,1,[1.892584799992619],[1.8925958999898285],9,4,112,6,804.1266033,,804.1122833,804.1266033,805.1281874,805.1281874,805.1281874,805.7454659,space,0.6133188,None,805.7461355,805.8457467,806.1555869,806.1421293,806.1427218,806.1555869,806.1555869,806.1555869,808.0484634,200,1,[1.892584799992619],[1.8925958999898285],Participant_01,1,2025-11-10_12h43.05.183,Intentional binding_LAB,,2025.1.1,59.73230371,2025-11-10 12h43.20.345499 +0530
0.1,1000,exp,113,5,9,space,0.6853563,None,150,1,[4.1539763000037055],[4.153997299988987],9,5,113,9,808.0644431,,808.0489423,808.0644431,809.0496322,809.0496322,809.0663096,809.7505666,space,0.6853563,None,809.7512589,809.8509845,810.1671233,810.1540885,810.1547421,810.1671233,810.1671233,810.1671233,814.3214215,150,1,[4.1539763000037055],[4.153997299988987],Participant_01,1,2025-11-10_12h43.05.183,Intentional binding_LAB,,2025.1.1,59.73230371,2025-11-10 12h43.20.345499 +0530
0.1,400,unexp,114,6,9,space,0.8032027,None,100,1,[4.1583766999829095],[4.158386700000847],9,6,114,0,814.3370716,,814.3217164,814.3370716,815.3235493,815.3235493,815.3404804,816.1401115,space,0.8032027,None,816.1407858,816.2400338,816.5536576,816.5398783,816.5405219,816.5536576,816.5536576,816.5536576,820.7123353,100,1,[4.1583766999829095],[4.158386700000847],Participant_01,1,2025-11-10_12h43.05.183,Intentional binding_LAB,,2025.1.1,59.73230371,2025-11-10 12h43.20.345499 +0530
0.7,400,unexp,115,7,9,space,0.5369158,None,500,1,[1.872218000004068],[1.8722268999845255],9,7,115,2,820.7282603,,820.7126319,820.7282603,821.7127002,821.7127002,821.7286592,822.2655192,space,0.5369158,None,822.2661987,822.9815095,823.2937898,823.2798611,823.2804894,823.2937898,823.2937898,823.2937898,825.1662674,500,1,[1.872218000004068],[1.8722268999845255],Participant_01,1,2025-11-10_12h43.05.183,Intentional binding_LAB,,2025.1.1,59.73230371,2025-11-10 12h43.20.345499 +0530
0.7,1000,exp,116,8,9,space,0.7272451,None,400,1,[2.0407181000045966],[2.0407287999987602],9,8,116,5,825.1829043,,825.1665093,825.1829043,826.1675944,826.1675944,826.1849528,826.9023209,space,0.7272451,None,826.9030206,827.6029714,827.914464,827.9024478,827.9030535,827.914464,827.914464,827.914464,829.955512,400,1,[2.0407181000045966],[2.0407287999987602],Participant_01,1,2025-11-10_12h43.05.183,Intentional binding_LAB,,2025.1.1,59.73230371,2025-11-10 12h43.20.345499 +0530
0.1,1000,exp,117,9,9,space,0.5420892,None,100,1,[2.734405600000173],[2.7344162999943364],9,9,117,3,829.9714062,,829.9559939,829.9714062,830.955953,830.955953,830.974518,831.507271,space,0.5420892,None,831.5079004,831.6073663,831.9260709,831.9098713,831.9105149,831.9260709,831.9260709,831.9260709,834.6607744,100,1,[2.734405600000173],[2.7344162999943364],Participant_01,1,2025-11-10_12h43.05.183,Intentional binding_LAB,,2025.1.1,59.73230371,2025-11-10 12h43.20.345499 +0530
0.4,400,unexp,118,10,9,space,0.5961482,None,300,1,[1.8154874999891035],[1.8154978000093251],9,10,118,1,834.6768116,,834.6610785,834.6768116,835.6626593,835.6626593,835.6793029,836.2624374,space,0.5961482,None,836.2633096,836.6633527,836.9825545,836.9692954,836.9699274,836.9825545,836.9825545,836.9825545,838.7983523,300,1,[1.8154874999891035],[1.8154978000093251],Participant_01,1,2025-11-10_12h43.05.183,Intentional binding_LAB,,2025.1.1,59.73230371,2025-11-10 12h43.20.345499 +0530
0.4,1000,exp,119,11,9,space,1.52489,None,300,1,[2.425719699996989],[2.4257281000027433],9,11,119,10,838.8143315,,838.7986514,838.8143315,839.7985685,839.7985685,839.8161571,841.33431,space,1.52489,None,841.335424,841.7350197,842.0454157,842.0325632,842.0333347,842.0454157,842.0454157,842.0454157,844.4713894,300,1,[2.425719699996989],[2.4257281000027433],Participant_01,1,2025-11-10_12h43.05.183,Intentional binding_LAB,,2025.1.1,59.73230371,2025-11-10 12h43.20.345499 +0530
0.4,1000,exp,120,0,10,space,0.7680458,None,200,1,[2.3741571999853477],[2.3741685999848414],10,0,120,10,844.4870857,,844.4716453,844.4870857,845.4724123,845.4724123,845.4902333,846.2412098,space,0.7680458,None,846.2421857,846.6578231,846.969139,846.9554092,846.9560382,846.969139,846.969139,846.969139,849.3436308,200,1,[2.3741571999853477],[2.3741685999848414],Participant_01,1,2025-11-10_12h43.05.183,Intentional binding_LAB,,2025.1.1,59.73230371,2025-11-10 12h43.20.345499 +0530
0.1,1000,exp,121,1,10,space,0.7055755,None,250,1,[6.1101969000010286],[6.110208600002807],10,1,121,3,849.359373,,849.3439362,849.359373,850.3455747,850.3455747,850.3625918,851.0623331,space,0.7055755,None,851.0630412,851.1624326,851.4753815,851.4626485,851.4632427,851.4753815,851.4753815,851.4753815,857.585916,250,1,[6.1101969000010286],[6.110208600002807],Participant_01,1,2025-11-10_12h43.05.183,Intentional binding_LAB,,2025.1.1,59.73230371,2025-11-10 12h43.20.345499 +0530
0.4,1000,exp,122,2,10,space,1.0326456,None,400,1,[1.4866942999942694],[1.4867054999922402],10,2,122,7,857.6010338,,857.586243,857.6010338,858.586492,858.586492,858.6040604,859.6212226,space,1.0326456,None,859.6219585,860.0224513,860.3373068,860.3241324,860.3247302,860.3373068,860.3373068,860.3373068,861.8242916,400,1,[1.4866942999942694],[1.4867054999922402],Participant_01,1,2025-11-10_12h43.05.183,Intentional binding_LAB,,2025.1.1,59.73230371,2025-11-10 12h43.20.345499 +0530
0.4,1000,exp,123,3,10,space,0.6263693,None,300,1,[3.845764700003201],[3.8457755999988876],10,3,123,4,861.839683,,861.8246226,861.839683,862.8246957,862.8246957,862.8412045,863.4581183,space,0.6263693,None,863.4589023,863.8589255,864.1682068,864.1548059,864.1555689,864.1682068,864.1682068,864.1682068,868.014303,300,1,[3.845764700003201],[3.8457755999988876],Participant_01,1,2025-11-10_12h43.05.183,Intentional binding_LAB,,2025.1.1,59.73230371,2025-11-10 12h43.20.345499 +0530
0.7,400,unexp,124,4,10,space,1.9174345,None,600,1,[1.5751637000066694],[1.5751751000061631],10,4,124,2,868.0291013,,868.0146336,868.0291013,869.0139761,869.0139761,869.0306091,870.9335744,space,1.9174345,None,870.9342492,871.6338399,871.9439716,871.9321803,871.9327204,871.9439716,871.9439716,871.9439716,873.5194581,600,1,[1.5751637000066694],[1.5751751000061631],Participant_01,1,2025-11-10_12h43.05.183,Intentional binding_LAB,,2025.1.1,59.73230371,2025-11-10 12h43.20.345499 +0530
0.1,1000,exp,125,5,10,space,0.6149236,None,100,1,[1.9114128000219353],[1.9114236000168603],10,5,125,9,873.5352161,,873.5198093,873.5352161,874.5212372,874.5212372,874.537651,875.1382995,space,0.6149236,None,875.1389768,875.2373554,875.5454287,875.5330034,875.5335373,875.5454287,875.5454287,875.5454287,877.4571342,100,1,[1.9114128000219353],[1.9114236000168603],Participant_01,1,2025-11-10_12h43.05.183,Intentional binding_LAB,,2025.1.1,59.73230371,2025-11-10 12h43.20.345499 +0530
0.7,1000,exp,126,6,10,space,0.8444247,None,700,1,[1.3579362999880686],[1.3579463999776635],10,6,126,8,877.4728537,,877.457434,877.4728537,878.4584707,878.4584707,878.4750886,879.3100886,space,0.8444247,None,879.3108181,880.0099478,880.3198601,880.307004,880.3075993,880.3198601,880.3198601,880.3198601,881.6781206,700,1,[1.3579362999880686],[1.3579463999776635],Participant_01,1,2025-11-10_12h43.05.183,Intentional binding_LAB,,2025.1.1,59.73230371,2025-11-10 12h43.20.345499 +0530
0.4,400,unexp,127,7,10,space,0.6215243,None,300,1,[1.8537922999821603],[1.8538051999930758],10,7,127,1,881.6948453,,881.6785494,881.6948453,882.6793392,882.6793392,882.6962887,883.3153478,space,0.6215243,None,883.3160314,883.7159997,884.0300506,884.0172261,884.0178703,884.0300506,884.0300506,884.0300506,885.884403,300,1,[1.8537922999821603],[1.8538051999930758],Participant_01,1,2025-11-10_12h43.05.183,Intentional binding_LAB,,2025.1.1,59.73230371,2025-11-10 12h43.20.345499 +0530
0.7,1000,exp,128,8,10,space,0.4727881,None,400,1,[1.6568390000029467],[1.6568487999902572],10,8,128,5,885.8990971,,885.88477,885.8990971,886.885758,886.885758,886.9025184,887.3683195,space,0.4727881,None,887.369041,888.0701578,888.3801998,888.3670868,888.367735,888.3801998,888.3801998,888.3801998,890.0373668,400,1,[1.6568390000029467],[1.6568487999902572],Participant_01,1,2025-11-10_12h43.05.183,Intentional binding_LAB,,2025.1.1,59.73230371,2025-11-10 12h43.20.345499 +0530
0.1,1000,exp,129,9,10,space,0.5066196,None,100,1,[1.4188862000009976],[1.4189052000001539],10,9,129,6,890.0533386,,890.0376855,890.0533386,891.0391836,891.0391836,891.0554356,891.5574296,space,0.5066196,None,891.5581174,891.6721432,891.9895279,891.9754121,891.9760329,891.9895279,891.9895279,891.9895279,893.4088041,100,1,[1.4188862000009976],[1.4189052000001539],Participant_01,1,2025-11-10_12h43.05.183,Intentional binding_LAB,,2025.1.1,59.73230371,2025-11-10 12h43.20.345499 +0530
0.1,400,unexp,130,10,10,space,0.76786,None,100,1,[1.3240996999957133],[1.324111099995207],10,10,130,0,893.4243251,,893.4092076,893.4243251,894.4093047,894.4093047,894.4256875,895.1946841,space,0.76786,None,895.1953461,895.3097241,895.6215655,895.6079039,895.6086983,895.6215655,895.6215655,895.6215655,896.9459775,100,1,[1.3240996999957133],[1.324111099995207],Participant_01,1,2025-11-10_12h43.05.183,Intentional binding_LAB,,2025.1.1,59.73230371,2025-11-10 12h43.20.345499 +0530
0.7,1000,exp,131,11,10,space,1.0439155,None,600,1,[1.260220099997241],[1.260232900007395],10,11,131,11,896.9609733,,896.9463108,896.9609733,897.9472829,897.9472829,897.963536,898.9996572,space,1.0439155,None,899.000366,899.6991695,900.0057968,899.9926909,899.9933311,900.0057968,900.0057968,900.0057968,901.2663514,600,1,[1.260220099997241],[1.260232900007395],Participant_01,1,2025-11-10_12h43.05.183,Intentional binding_LAB,,2025.1.1,59.73230371,2025-11-10 12h43.20.345499 +0530
0.1,1000,exp,132,0,11,space,0.5392207,None,150,1,[2.6854885000211652],[2.685498800012283],11,0,132,3,901.2824677,,901.26663,901.2824677,902.2693112,902.2693112,902.2856652,902.8182449,space,0.5392207,None,902.8191429,902.9188806,903.2369267,903.2222999,903.222953,903.2369267,903.2369267,903.2369267,905.9227208,150,1,[2.6854885000211652],[2.685498800012283],Participant_01,1,2025-11-10_12h43.05.183,Intentional binding_LAB,,2025.1.1,59.73230371,2025-11-10 12h43.20.345499 +0530
0.1,400,unexp,133,1,11,space,0.5449945,None,200,1,[2.259316299983766],[2.2593249999918044],11,1,133,0,905.9380644,,905.9230297,905.9380644,906.9225142,906.9225142,906.9385339,907.4742018,space,0.5449945,None,907.4748887,907.5899092,907.9002873,907.8885053,907.8890652,907.9002873,907.9002873,907.9002873,910.1598993,200,1,[2.259316299983766],[2.2593249999918044],Participant_01,1,2025-11-10_12h43.05.183,Intentional binding_LAB,,2025.1.1,59.73230371,2025-11-10 12h43.20.345499 +0530
0.4,400,unexp,134,2,11,space,0.3482584,None,300,1,[1.568303600011859],[1.5683151000121143],11,2,134,1,910.1756902,,910.1602274,910.1756902,911.1617576,911.1617576,911.1782239,911.5119187,space,0.3482584,None,911.5125836,911.9120168,912.2295717,912.2162271,912.2169024,912.2295717,912.2295717,912.2295717,913.7981876,300,1,[1.568303600011859],[1.5683151000121143],Participant_01,1,2025-11-10_12h43.05.183,Intentional binding_LAB,,2025.1.1,59.73230371,2025-11-10 12h43.20.345499 +0530
0.7,1000,exp,135,3,11,space,0.5657998,None,500,1,[1.3685718999768142],[1.3685826000000816],11,3,135,8,913.8130885,,913.7984964,913.8130885,914.799699,914.799699,914.8141995,915.3836236,space,0.5657998,None,915.3843118,916.0845192,916.399424,916.3865297,916.3872501,916.399424,916.399424,916.399424,917.7683937,500,1,[1.3685718999768142],[1.3685826000000816],Participant_01,1,2025-11-10_12h43.05.183,Intentional binding_LAB,,2025.1.1,59.73230371,2025-11-10 12h43.20.345499 +0530
0.7,400,unexp,136,4,11,space,0.5937838,None,600,1,[15.859362099989085],[15.859372499980964],11,4,136,2,917.7840498,,917.7687102,917.7840498,918.7696979,918.7696979,918.7855027,919.3723601,space,0.5937838,None,919.3730649,920.0714392,920.3786209,920.3644388,920.3650786,920.3786209,920.3786209,920.3786209,936.2382724,600,1,[15.859362099989085],[15.859372499980964],Participant_01,1,2025-11-10_12h43.05.183,Intentional binding_LAB,,2025.1.1,59.73230371,2025-11-10 12h43.20.345499 +0530
0.4,1000,exp,137,5,11,space,1.1355779,None,400,1,[1.6368500999815296],[1.636860800004797],11,5,137,10,936.2540171,,936.2385461,936.2540171,937.2402098,937.2402098,937.2568996,938.3918418,space,1.1355779,None,938.392705,938.7923685,939.1069122,939.0944189,939.0950738,939.1069122,939.1069122,939.1069122,940.7440597,400,1,[1.6368500999815296],[1.636860800004797],Participant_01,1,2025-11-10_12h43.05.183,Intentional binding_LAB,,2025.1.1,59.73230371,2025-11-10 12h43.20.345499 +0530
0.1,1000,exp,138,6,11,space,0.9229557,None,300,1,[9.045565300009912],[9.045576400007121],11,6,138,9,940.7587551,,940.7443534,940.7587551,941.7446225,941.7446225,941.7609993,942.6805112,space,0.9229557,None,942.681185,942.7953766,943.1109355,943.098383,943.0990515,943.1109355,943.1109355,943.1109355,952.156809,300,1,[9.045565300009912],[9.045576400007121],Participant_01,1,2025-11-10_12h43.05.183,Intentional binding_LAB,,2025.1.1,59.73230371,2025-11-10 12h43.20.345499 +0530
0.7,1000,exp,139,7,11,space,0.5112617,None,400,1,[2.339353300019866],[2.339363200007938],11,7,139,11,952.1713258,,952.1571165,952.1713258,953.15709,953.15709,953.1730131,953.6745393,space,0.5112617,None,953.6754072,954.3753999,954.6882542,954.6761393,954.6766812,954.6882542,954.6882542,954.6882542,957.0279184,400,1,[2.339353300019866],[2.339363200007938],Participant_01,1,2025-11-10_12h43.05.183,Intentional binding_LAB,,2025.1.1,59.73230371,2025-11-10 12h43.20.345499 +0530
0.1,1000,exp,140,8,11,space,0.6674524,None,100,1,[1.4104167000041343],[1.410427399998298],11,8,140,6,957.0435132,,957.028223,957.0435132,958.0292355,958.0292355,958.0452869,958.7139719,space,0.6674524,None,958.7146706,958.8139801,959.1210591,959.1073615,959.1079743,959.1210591,959.1210591,959.1210591,960.5317358,100,1,[1.4104167000041343],[1.410427399998298],Participant_01,1,2025-11-10_12h43.05.183,Intentional binding_LAB,,2025.1.1,59.73230371,2025-11-10 12h43.20.345499 +0530
0.4,1000,exp,141,9,11,space,0.684292,None,200,1,[3.199224599986337],[3.199236299988115],11,9,141,4,960.5475884,,960.5319727,960.5475884,961.533207,961.533207,961.5507275,962.2184918,space,0.684292,None,962.2193605,962.6328891,962.9389725,962.926959,962.9273493,962.9389725,962.9389725,962.9389725,966.1384659,200,1,[3.199224599986337],[3.199236299988115],Participant_01,1,2025-11-10_12h43.05.183,Intentional binding_LAB,,2025.1.1,59.73230371,2025-11-10 12h43.20.345499 +0530
0.4,1000,exp,142,10,11,space,1.1118662,None,250,1,[3.5250549000047613],[3.5250652999966405],11,10,142,7,966.1541668,,966.1386984,966.1541668,967.1376612,967.1376612,967.1557925,968.2583648,space,1.1118662,None,968.2590397,968.6586215,968.9697653,968.957775,968.9584264,968.9697653,968.9697653,968.9697653,972.4951157,250,1,[3.5250549000047613],[3.5250652999966405],Participant_01,1,2025-11-10_12h43.05.183,Intentional binding_LAB,,2025.1.1,59.73230371,2025-11-10 12h43.20.345499 +0530
0.7,1000,exp,143,11,11,space,0.9504153,None,600,1,[3.771034800010966],[3.771045600005891],11,11,143,5,972.5107056,,972.4954209,972.5107056,973.4954416,973.4954416,973.5129062,974.4480084,space,0.9504153,None,974.4486961,975.165628,975.4814059,975.4672601,975.4679113,975.4814059,975.4814059,975.4814059,979.2527657,600,1,[3.771034800010966],[3.771045600005891],Participant_01,1,2025-11-10_12h43.05.183,Intentional binding_LAB,,2025.1.1,59.73230371,2025-11-10 12h43.20.345499 +0530
0.1,400,unexp,144,0,12,space,0.9034073,None,100,1,[2.594293900008779],[2.594302500016056],12,0,144,0,979.26845,,979.2531332,979.26845,980.2546251,980.2546251,980.27115,981.1700081,space,0.9034073,None,981.1706902,981.2725471,981.5798174,981.5660045,981.5666361,981.5798174,981.5798174,981.5798174,984.1743809,100,1,[2.594293900008779],[2.594302500016056],Participant_01,1,2025-11-10_12h43.05.183,Intentional binding_LAB,,2025.1.1,59.73230371,2025-11-10 12h43.20.345499 +0530
0.4,400,unexp,145,1,12,space,0.572538,None,300,1,[1.1119968999992125],[1.1120073999918532],12,1,145,1,984.1894719,,984.1746283,984.1894719,985.1756359,985.1756359,985.1920118,985.758649,space,0.572538,None,985.7591952,986.1589216,986.466271,986.4540843,986.454596,986.466271,986.466271,986.466271,987.5785911,300,1,[1.1119968999992125],[1.1120073999918532],Participant_01,1,2025-11-10_12h43.05.183,Intentional binding_LAB,,2025.1.1,59.73230371,2025-11-10 12h43.20.345499 +0530
0.1,1000,exp,146,2,12,space,0.4052049,None,100,1,[1.3510313000006136],[1.3510435000061989],12,2,146,9,987.5942638,,987.5789075,987.5942638,988.5785504,988.5785504,988.5955272,988.9968111,space,0.4052049,None,988.9974816,989.0970214,989.414606,989.399614,989.4002711,989.414606,989.414606,989.414606,990.7659778,100,1,[1.3510313000006136],[1.3510435000061989],Participant_01,1,2025-11-10_12h43.05.183,Intentional binding_LAB,,2025.1.1,59.73230371,2025-11-10 12h43.20.345499 +0530
0.4,1000,exp,147,3,12,space,0.3621434,None,200,1,[2.703908399998909],[2.703926300018793],12,3,147,4,990.7800521,,990.7663133,990.7800521,991.7666302,991.7666302,991.783026,992.133262,space,0.3621434,None,992.1339808,992.5352782,992.8494506,992.8380026,992.8386109,992.8494506,992.8494506,992.8494506,995.5536314,200,1,[2.703908399998909],[2.703926300018793],Participant_01,1,2025-11-10_12h43.05.183,Intentional binding_LAB,,2025.1.1,59.73230371,2025-11-10 12h43.20.345499 +0530
0.7,400,unexp,148,4,12,space,0.9884286,None,300,1,[1.5058405000017956],[1.5058502999891061],12,4,148,2,995.5692223,,995.5540533,995.5692223,996.5546077,996.5546077,996.5712839,997.5558454,space,0.9884286,None,997.5564821,998.2556494,998.5695089,998.5576256,998.558276,998.5695089,998.5695089,998.5695089,1000.075662,300,1,[1.5058405000017956],[1.5058502999891061],Participant_01,1,2025-11-10_12h43.05.183,Intentional binding_LAB,,2025.1.1,59.73230371,2025-11-10 12h43.20.345499 +0530
0.7,1000,exp,149,5,12,space,0.4507441,None,500,1,[1.7490400999959093],[1.749050399987027],12,5,149,5,1000.091226,,1000.075954,1000.091226,1001.077535,1001.077535,1001.091645,1001.543268,space,0.4507441,None,1001.543897,1002.245958,1002.564529,1002.552966,1002.553489,1002.564529,1002.564529,1002.564529,1004.313877,500,1,[1.7490400999959093],[1.749050399987027],Participant_01,1,2025-11-10_12h43.05.183,Intentional binding_LAB,,2025.1.1,59.73230371,2025-11-10 12h43.20.345499 +0530
0.7,1000,exp,150,6,12,space,0.429624,None,600,1,[0.9108852999925148],[0.9108985000057146],12,6,150,11,1004.329089,,1004.314224,1004.329089,1005.314433,1005.314433,1005.330456,1005.749742,space,0.429624,None,1005.750431,1006.465199,1006.7722,1006.758712,1006.759338,1006.7722,1006.7722,1006.7722,1007.683419,600,1,[0.9108852999925148],[0.9108985000057146],Participant_01,1,2025-11-10_12h43.05.183,Intentional binding_LAB,,2025.1.1,59.73230371,2025-11-10 12h43.20.345499 +0530
0.4,1000,exp,151,7,12,space,0.5437653,None,400,1,[2.759435400017537],[2.7594454000063706],12,7,151,10,1007.699026,,1007.68373,1007.699026,1008.683768,1008.683768,1008.701526,1009.237063,space,0.5437653,None,1009.237944,1009.636954,1009.948048,1009.935892,1009.936502,1009.948048,1009.948048,1009.948048,1012.707799,400,1,[2.759435400017537],[2.7594454000063706],Participant_01,1,2025-11-10_12h43.05.183,Intentional binding_LAB,,2025.1.1,59.73230371,2025-11-10 12h43.20.345499 +0530
0.1,1000,exp,152,8,12,space,0.2646633,None,200,1,[1.603886800003238],[1.6038973999966402],12,8,152,6,1012.72175,,1012.708123,1012.72175,1013.706855,1013.706855,1013.72442,1013.973727,space,0.2646633,None,1013.974591,1014.07383,1014.389099,1014.376153,1014.376799,1014.389099,1014.389099,1014.389099,1015.993285,200,1,[1.603886800003238],[1.6038973999966402],Participant_01,1,2025-11-10_12h43.05.183,Intentional binding_LAB,,2025.1.1,59.73230371,2025-11-10 12h43.20.345499 +0530
0.1,1000,exp,153,9,12,space,0.7572786,None,100,1,[1.1415651999996044],[1.1415740000084043],12,9,153,3,1016.008576,,1015.993648,1016.008576,1016.993806,1016.993806,1017.009997,1017.760473,space,0.7572786,None,1017.761136,1017.860553,1018.170932,1018.156759,1018.15745,1018.170932,1018.170932,1018.170932,1019.312754,100,1,[1.1415651999996044],[1.1415740000084043],Participant_01,1,2025-11-10_12h43.05.183,Intentional binding_LAB,,2025.1.1,59.73230371,2025-11-10 12h43.20.345499 +0530
0.7,1000,exp,154,10,12,space,0.3176457,None,500,1,[1.4545820000057574],[1.4545918999938294],12,10,154,8,1019.328407,,1019.313033,1019.328407,1020.313954,1020.313954,1020.330938,1020.6482,space,0.3176457,None,1020.648895,1021.348315,1021.661764,1021.649274,1021.649881,1021.661764,1021.661764,1021.661764,1023.116673,500,1,[1.4545820000057574],[1.4545918999938294],Participant_01,1,2025-11-10_12h43.05.183,Intentional binding_LAB,,2025.1.1,59.73230371,2025-11-10 12h43.20.345499 +0530
0.4,1000,exp,155,11,12,space,0.4099912,None,500,1,[1.9841808000055607],[1.9841913999989629],12,11,155,7,1023.133388,,1023.117114,1023.133388,1024.11993,1024.11993,1024.134579,1024.53734,space,0.4099912,None,1024.538066,1024.937403,1025.25287,1025.236435,1025.23695,1025.25287,1025.25287,1025.25287,1027.237443,500,1,[1.9841808000055607],[1.9841913999989629],Participant_01,1,2025-11-10_12h43.05.183,Intentional binding_LAB,,2025.1.1,59.73230371,2025-11-10 12h43.20.345499 +0530
0.7,400,unexp,156,0,13,space,0.322419,None,700,1,[2.193810900003882],[2.193820799991954],13,0,156,2,1027.253804,,1027.237718,1027.253804,1028.239152,1028.239152,1028.256832,1028.572839,space,0.322419,None,1028.573534,1029.273803,1029.582613,1029.568852,1029.569812,1029.582613,1029.582613,1029.582613,1031.776704,700,1,[2.193810900003882],[2.193820799991954],Participant_01,1,2025-11-10_12h43.05.183,Intentional binding_LAB,,2025.1.1,59.73230371,2025-11-10 12h43.20.345499 +0530
0.1,400,unexp,157,1,13,space,0.6252557,None,300,1,[1.8609019999857992],[1.8609135999868158],13,1,157,0,1031.79198,,1031.776955,1031.79198,1032.777819,1032.777819,1032.793714,1033.412697,space,0.6252557,None,1033.41336,1033.512422,1033.820373,1033.807192,1033.807812,1033.820373,1033.820373,1033.820373,1035.681591,300,1,[1.8609019999857992],[1.8609135999868158],Participant_01,1,2025-11-10_12h43.05.183,Intentional binding_LAB,,2025.1.1,59.73230371,2025-11-10 12h43.20.345499 +0530
0.1,1000,exp,158,2,13,space,0.3264995,None,200,1,[3.813859299989417],[3.8138698999828193],13,2,158,6,1035.697105,,1035.681914,1035.697105,1036.682665,1036.682665,1036.699806,1037.016297,space,0.3264995,None,1037.017002,1037.116304,1037.422546,1037.409649,1037.410165,1037.422546,1037.422546,1037.422546,1041.23681,200,1,[3.813859299989417],[3.8138698999828193],Participant_01,1,2025-11-10_12h43.05.183,Intentional binding_LAB,,2025.1.1,59.73230371,2025-11-10 12h43.20.345499 +0530
0.4,400,unexp,159,3,13,space,0.4597375,None,500,1,[2.1873108000145294],[2.1873197999957483],13,3,159,1,1041.253037,,1041.237262,1041.253037,1042.238945,1042.238945,1042.255167,1042.704977,space,0.4597375,None,1042.705817,1043.105628,1043.421556,1043.408623,1043.409195,1043.421556,1043.421556,1043.421556,1045.609149,500,1,[2.1873108000145294],[2.1873197999957483],Participant_01,1,2025-11-10_12h43.05.183,Intentional binding_LAB,,2025.1.1,59.73230371,2025-11-10 12h43.20.345499 +0530
0.1,1000,exp,160,4,13,space,0.4553293,None,300,1,[3.3903197000036016],[3.390328800014686],13,4,160,3,1045.624613,,1045.609405,1045.624613,1046.626327,1046.626327,1046.626327,1047.094381,space,0.4553293,None,1047.095127,1047.210962,1047.523753,1047.508962,1047.50954,1047.523753,1047.523753,1047.523753,1050.914399,300,1,[3.3903197000036016],[3.390328800014686],Participant_01,1,2025-11-10_12h43.05.183,Intentional binding_LAB,,2025.1.1,59.73230371,2025-11-10 12h43.20.345499 +0530
0.7,1000,exp,161,5,13,space,0.4193359,None,600,1,[1.424839899991639],[1.4248476999928243],13,5,161,8,1050.930189,,1050.914661,1050.930189,1051.915757,1051.915757,1051.932752,1052.350536,space,0.4193359,None,1052.35121,1053.066325,1053.37706,1053.364506,1053.365268,1053.37706,1053.37706,1053.37706,1054.802166,600,1,[1.424839899991639],[1.4248476999928243],Participant_01,1,2025-11-10_12h43.05.183,Intentional binding_LAB,,2025.1.1,59.73230371,2025-11-10 12h43.20.345499 +0530
0.4,1000,exp,162,6,13,space,4.0552694,None,400,1,[3.724362500011921],[3.724373100005323],13,6,162,7,1054.817209,,1054.802407,1054.817209,1055.803437,1055.803437,1055.819702,1059.87463,space,4.0552694,None,1059.875297,1060.274263,1060.58753,1060.574888,1060.575472,1060.58753,1060.58753,1060.58753,1064.312238,400,1,[3.724362500011921],[3.724373100005323],Participant_01,1,2025-11-10_12h43.05.183,Intentional binding_LAB,,2025.1.1,59.73230371,2025-11-10 12h43.20.345499 +0530
0.7,1000,exp,163,7,13,space,0.8430165,None,700,1,[1.271286900009727],[1.271294800011674],13,7,163,11,1064.328565,,1064.312589,1064.328565,1065.314872,1065.314872,1065.329856,1066.165204,space,0.8430165,None,1066.165926,1066.864829,1067.179827,1067.16647,1067.167111,1067.179827,1067.179827,1067.179827,1068.451373,700,1,[1.271286900009727],[1.271294800011674],Participant_01,1,2025-11-10_12h43.05.183,Intentional binding_LAB,,2025.1.1,59.73230371,2025-11-10 12h43.20.345499 +0530
0.4,1000,exp,164,8,13,space,0.5941265,None,600,1,[2.0539194000011776],[2.0539372000203002],13,8,164,10,1068.465353,,1068.451624,1068.465353,1069.452674,1069.452674,1069.467254,1070.054817,space,0.5941265,None,1070.055521,1070.46953,1070.783992,1070.77325,1070.773792,1070.783992,1070.783992,1070.783992,1072.838188,600,1,[2.0539194000011776],[2.0539372000203002],Participant_01,1,2025-11-10_12h43.05.183,Intentional binding_LAB,,2025.1.1,59.73230371,2025-11-10 12h43.20.345499 +0530
0.7,1000,exp,165,9,13,space,0.5746721,None,750,1,[3.1937546999834012],[3.1937659999821335],13,9,165,5,1072.853854,,1072.838425,1072.853854,1073.83901,1073.83901,1073.857161,1074.422928,space,0.5746721,None,1074.423638,1075.124527,1075.435216,1075.422225,1075.422962,1075.435216,1075.435216,1075.435216,1078.629321,750,1,[3.1937546999834012],[3.1937659999821335],Participant_01,1,2025-11-10_12h43.05.183,Intentional binding_LAB,,2025.1.1,59.73230371,2025-11-10 12h43.20.345499 +0530
0.4,1000,exp,166,10,13,space,0.8859044,None,500,1,[2.0526868000160903],[2.0526992000231985],13,10,166,4,1078.643305,,1078.629643,1078.643305,1079.628814,1079.628814,1079.646558,1080.531612,space,0.8859044,None,1080.532214,1080.94703,1081.263599,1081.248441,1081.249062,1081.263599,1081.263599,1081.263599,1083.316643,500,1,[2.0526868000160903],[2.0526992000231985],Participant_01,1,2025-11-10_12h43.05.183,Intentional binding_LAB,,2025.1.1,59.73230371,2025-11-10 12h43.20.345499 +0530
0.1,1000,exp,167,11,13,space,0.5836381,None,300,1,[1.68799500001478],[1.6880058000097051],13,11,167,9,1083.331876,,1083.316989,1083.331876,1084.31793,1084.31793,1084.334329,1084.902304,space,0.5836381,None,1084.903287,1085.017952,1085.332734,1085.320177,1085.320783,1085.332734,1085.332734,1085.332734,1087.021032,300,1,[1.68799500001478],[1.6880058000097051],Participant_01,1,2025-11-10_12h43.05.183,Intentional binding_LAB,,2025.1.1,59.73230371,2025-11-10 12h43.20.345499 +0530
0.1,1000,exp,168,0,14,space,0.5965334,None,200,1,[1.143036800000118],[1.1430480999988504],14,0,168,9,1087.036514,,1087.021319,1087.036514,1088.022152,1088.022152,1088.038457,1088.62275,space,0.5965334,None,1088.623452,1088.723902,1089.031476,1089.018836,1089.01945,1089.031476,1089.031476,1089.031476,1090.17483,200,1,[1.143036800000118],[1.1430480999988504],Participant_01,1,2025-11-10_12h43.05.183,Intentional binding_LAB,,2025.1.1,59.73230371,2025-11-10 12h43.20.345499 +0530
0.4,1000,exp,169,1,14,space,0.3353772,None,300,1,[3.1729983999975957],[3.1730060999980196],14,1,169,10,1090.190023,,1090.175131,1090.190023,1091.175537,1091.175537,1091.192539,1091.525852,space,0.3353772,None,1091.526523,1091.92683,1092.239784,1092.227208,1092.227843,1092.239784,1092.239784,1092.239784,1095.413061,300,1,[3.1729983999975957],[3.1730060999980196],Participant_01,1,2025-11-10_12h43.05.183,Intentional binding_LAB,,2025.1.1,59.73230371,2025-11-10 12h43.20.345499 +0530
0.1,1000,exp,170,2,14,space,0.6339611,None,200,1,[2.527102499996545],[2.5271138999960385],14,2,170,6,1095.429003,,1095.413377,1095.429003,1096.413108,1096.413108,1096.433268,1097.0645,space,0.6339611,None,1097.065279,1097.165832,1097.474447,1097.460398,1097.461288,1097.474447,1097.474447,1097.474447,1100.001872,200,1,[2.527102499996545],[2.5271138999960385],Participant_01,1,2025-11-10_12h43.05.183,Intentional binding_LAB,,2025.1.1,59.73230371,2025-11-10 12h43.20.345499 +0530
0.7,1000,exp,171,3,14,space,0.3181422,None,300,1,[1.2210042999940924],[1.2210175000072923],14,3,171,5,1100.017473,,1100.00217,1100.017473,1101.00167,1101.00167,1101.01972,1101.32073,space,0.3181422,None,1101.321444,1102.021195,1102.334509,1102.320641,1102.321232,1102.334509,1102.334509,1102.334509,1103.55583,300,1,[1.2210042999940924],[1.2210175000072923],Participant_01,1,2025-11-10_12h43.05.183,Intentional binding_LAB,,2025.1.1,59.73230371,2025-11-10 12h43.20.345499 +0530
0.4,1000,exp,172,4,14,space,0.2790304,None,200,1,[1.538385299994843],[1.538395199982915],14,4,172,4,1103.570544,,1103.55615,1103.570544,1104.556829,1104.556829,1104.572875,1104.839316,space,0.2790304,None,1104.840191,1105.241116,1105.553135,1105.540827,1105.541412,1105.553135,1105.553135,1105.553135,1107.091862,200,1,[1.538385299994843],[1.538395199982915],Participant_01,1,2025-11-10_12h43.05.183,Intentional binding_LAB,,2025.1.1,59.73230371,2025-11-10 12h43.20.345499 +0530
0.7,1000,exp,173,5,14,space,0.2684604,None,500,1,[1.6206705000076909],[1.62068089999957],14,5,173,8,1107.108133,,1107.0922,1107.108133,1108.094363,1108.094363,1108.110977,1108.378248,space,0.2684604,None,1108.378958,1109.079398,1109.393277,1109.379878,1109.380524,1109.393277,1109.393277,1109.393277,1111.014246,500,1,[1.6206705000076909],[1.62068089999957],Participant_01,1,2025-11-10_12h43.05.183,Intentional binding_LAB,,2025.1.1,59.73230371,2025-11-10 12h43.20.345499 +0530
0.4,1000,exp,174,6,14,space,0.3921563,None,400,1,[1.3270667000033427],[1.327076500019757],14,6,174,7,1111.029568,,1111.014563,1111.029568,1112.013968,1112.013968,1112.030625,1112.415797,space,0.3921563,None,1112.416619,1112.815847,1113.124421,1113.110974,1113.111674,1113.124421,1113.124421,1113.124421,1114.451836,400,1,[1.3270667000033427],[1.327076500019757],Participant_01,1,2025-11-10_12h43.05.183,Intentional binding_LAB,,2025.1.1,59.73230371,2025-11-10 12h43.20.345499 +0530
0.1,400,unexp,175,7,14,space,0.4169931,None,150,1,[3.788787900004536],[3.7887983999971766],14,7,175,0,1114.46622,,1114.452177,1114.46622,1115.455585,1115.455585,1115.466846,1115.885839,space,0.4169931,None,1115.886705,1115.986834,1116.301082,1116.28935,1116.290004,1116.301082,1116.301082,1116.301082,1120.090179,150,1,[3.788787900004536],[3.7887983999971766],Participant_01,1,2025-11-10_12h43.05.183,Intentional binding_LAB,,2025.1.1,59.73230371,2025-11-10 12h43.20.345499 +0530
0.4,400,unexp,176,8,14,space,0.3961348,None,200,1,[1.9166920999996364],[1.9167026999930386],14,8,176,1,1120.105865,,1120.090506,1120.105865,1121.092601,1121.092601,1121.110191,1121.494511,space,0.3961348,None,1121.495514,1121.90993,1122.227856,1122.213561,1122.214085,1122.227856,1122.227856,1122.227856,1124.144828,200,1,[1.9166920999996364],[1.9167026999930386],Participant_01,1,2025-11-10_12h43.05.183,Intentional binding_LAB,,2025.1.1,59.73230371,2025-11-10 12h43.20.345499 +0530
0.7,400,unexp,177,9,14,space,0.4492875,None,500,1,[1.209073099977104],[1.2090812999813352],14,9,177,2,1124.160553,,1124.145073,1124.160553,1125.145513,1125.145513,1125.161875,1125.596737,space,0.4492875,None,1125.597589,1126.313737,1126.622792,1126.608379,1126.609011,1126.622792,1126.622792,1126.622792,1127.832121,500,1,[1.209073099977104],[1.2090812999813352],Participant_01,1,2025-11-10_12h43.05.183,Intentional binding_LAB,,2025.1.1,59.73230371,2025-11-10 12h43.20.345499 +0530
0.7,1000,exp,178,10,14,space,0.2828235,None,600,1,[1.3670576000004075],[1.3670683999953326],14,10,178,11,1127.847943,,1127.832364,1127.847943,1128.833183,1128.833183,1128.850817,1129.116996,space,0.2828235,None,1129.117903,1129.817665,1130.135422,1130.121549,1130.122176,1130.135422,1130.135422,1130.135422,1131.502792,600,1,[1.3670576000004075],[1.3670683999953326],Participant_01,1,2025-11-10_12h43.05.183,Intentional binding_LAB,,2025.1.1,59.73230371,2025-11-10 12h43.20.345499 +0530
0.1,1000,exp,179,11,14,space,0.3089882,None,200,1,[3.13851450002403],[3.1385248000151478],14,11,179,3,1131.518462,,1131.503133,1131.518462,1132.505287,1132.505287,1132.519684,1132.820049,space,0.3089882,None,1132.820684,1132.922356,1133.236181,1133.223376,1133.22401,1133.236181,1133.236181,1133.236181,1136.375001,200,1,[3.13851450002403],[3.1385248000151478],Participant_01,1,2025-11-10_12h43.05.183,Intentional binding_LAB,,2025.1.1,59.73230371,2025-11-10 12h43.20.345499 +0530
0.4,1000,exp,180,0,15,space,0.2926709,None,300,1,[2.050911199999973],[2.050921299989568],15,0,180,10,1136.390166,,1136.375319,1136.390166,1137.375393,1137.375393,1137.393866,1137.676659,space,0.2926709,None,1137.677369,1138.075972,1138.393909,1138.380885,1138.381523,1138.393909,1138.393909,1138.393909,1140.445144,300,1,[2.050911199999973],[2.050921299989568],Participant_01,1,2025-11-10_12h43.05.183,Intentional binding_LAB,,2025.1.1,59.73230371,2025-11-10 12h43.20.345499 +0530
0.4,400,unexp,181,1,15,space,0.3132405,None,400,1,[1.793038300005719],[1.7930482999945525],15,1,181,1,1140.462027,,1140.445475,1140.462027,1141.447887,1141.447887,1141.465266,1141.763942,space,0.3132405,None,1141.764828,1142.1639,1142.472761,1142.458862,1142.459455,1142.472761,1142.472761,1142.472761,1144.26614,400,1,[1.793038300005719],[1.7930482999945525],Participant_01,1,2025-11-10_12h43.05.183,Intentional binding_LAB,,2025.1.1,59.73230371,2025-11-10 12h43.20.345499 +0530
0.4,1000,exp,182,2,15,space,0.4591068,None,300,1,[2.277157599979546],[2.2771686999767553],15,2,182,4,1144.282224,,1144.266453,1144.282224,1145.268299,1145.268299,1145.285219,1145.73632,space,0.4591068,None,1145.737054,1146.135829,1146.444214,1146.429998,1146.430591,1146.444214,1146.444214,1146.444214,1148.721685,300,1,[2.277157599979546],[2.2771686999767553],Participant_01,1,2025-11-10_12h43.05.183,Intentional binding_LAB,,2025.1.1,59.73230371,2025-11-10 12h43.20.345499 +0530
0.1,1000,exp,183,3,15,space,0.2962737,None,200,1,[1.6232160000072327],[1.6232284000143409],15,3,183,3,1148.737486,,1148.722001,1148.737486,1149.724101,1149.724101,1149.740788,1150.024616,space,0.2962737,None,1150.025288,1150.140205,1150.453877,1150.441365,1150.441901,1150.453877,1150.453877,1150.453877,1152.07744,200,1,[1.6232160000072327],[1.6232284000143409],Participant_01,1,2025-11-10_12h43.05.183,Intentional binding_LAB,,2025.1.1,59.73230371,2025-11-10 12h43.20.345499 +0530
0.4,1000,exp,184,4,15,space,0.2990327,None,450,1,[2.278099299990572],[2.278107699996326],15,4,184,7,1152.090593,,1152.077776,1152.090593,1153.078883,1153.078883,1153.092228,1153.378884,space,0.2990327,None,1153.379803,1153.793503,1154.10217,1154.090403,1154.090964,1154.10217,1154.10217,1154.10217,1156.380552,450,1,[2.278099299990572],[2.278107699996326],Participant_01,1,2025-11-10_12h43.05.183,Intentional binding_LAB,,2025.1.1,59.73230371,2025-11-10 12h43.20.345499 +0530
0.7,1000,exp,185,5,15,space,0.3465668,None,500,1,[1.1378192999982275],[1.1378310000000056],15,5,185,8,1156.395974,,1156.380842,1156.395974,1157.382383,1157.382383,1157.399408,1157.731796,space,0.3465668,None,1157.732653,1158.431581,1158.745109,1158.731657,1158.732297,1158.745109,1158.745109,1158.745109,1159.883272,500,1,[1.1378192999982275],[1.1378310000000056],Participant_01,1,2025-11-10_12h43.05.183,Intentional binding_LAB,,2025.1.1,59.73230371,2025-11-10 12h43.20.345499 +0530
0.7,1000,exp,186,6,15,space,1.2409329,None,700,1,[1.7415379000012763],[1.7415457000024617],15,6,186,5,1159.899281,,1159.883596,1159.899281,1160.884317,1160.884317,1160.90058,1162.136921,space,1.2409329,None,1162.137825,1162.8373,1163.146789,1163.133446,1163.134116,1163.146789,1163.146789,1163.146789,1164.888656,700,1,[1.7415379000012763],[1.7415457000024617],Participant_01,1,2025-11-10_12h43.05.183,Intentional binding_LAB,,2025.1.1,59.73230371,2025-11-10 12h43.20.345499 +0530
0.7,1000,exp,187,7,15,space,0.8665521,None,750,1,[2.8438045000075363],[2.8438148999994155],15,7,187,11,1164.904656,,1164.888932,1164.904656,1165.890668,1165.890668,1165.90704,1166.758619,space,0.8665521,None,1166.759489,1167.458466,1167.767981,1167.754455,1167.755072,1167.767981,1167.767981,1167.767981,1170.612091,750,1,[2.8438045000075363],[2.8438148999994155],Participant_01,1,2025-11-10_12h43.05.183,Intentional binding_LAB,,2025.1.1,59.73230371,2025-11-10 12h43.20.345499 +0530
0.7,400,unexp,188,8,15,space,1.9717773,None,600,1,[2.051534199999878],[2.051545599999372],15,8,188,2,1170.627621,,1170.61239,1170.627621,1171.613731,1171.613731,1171.630768,1173.599556,space,1.9717773,None,1173.600314,1174.301183,1174.616403,1174.603188,1174.603823,1174.616403,1174.616403,1174.616403,1176.668255,600,1,[2.051534199999878],[2.051545599999372],Participant_01,1,2025-11-10_12h43.05.183,Intentional binding_LAB,,2025.1.1,59.73230371,2025-11-10 12h43.20.345499 +0530
0.1,400,unexp,189,9,15,space,1.066374,None,300,1,[3.4274888999934774],[3.4274998999899253],15,9,189,0,1176.684918,,1176.668569,1176.684918,1177.671708,1177.671708,1177.686173,1178.754959,space,1.066374,None,1178.755644,1178.854458,1179.163816,1179.150027,1179.150749,1179.163816,1179.163816,1179.163816,1182.5916,300,1,[3.4274888999934774],[3.4274998999899253],Participant_01,1,2025-11-10_12h43.05.183,Intentional binding_LAB,,2025.1.1,59.73230371,2025-11-10 12h43.20.345499 +0530
0.1,1000,exp,190,10,15,space,0.4953529,None,200,1,[1.8195190999831539],[1.819529300002614],15,10,190,6,1182.608159,,1182.591903,1182.608159,1183.592924,1183.592924,1183.609669,1184.093298,space,0.4953529,None,1184.093977,1184.195188,1184.510164,1184.495223,1184.495745,1184.510164,1184.510164,1184.510164,1186.330204,200,1,[1.8195190999831539],[1.819529300002614],Participant_01,1,2025-11-10_12h43.05.183,Intentional binding_LAB,,2025.1.1,59.73230371,2025-11-10 12h43.20.345499 +0530
0.1,1000,exp,191,11,15,space,0.440205,None,200,1,[1.5720590999990236],[1.5720704999985173],15,11,191,9,1186.345475,,1186.330566,1186.345475,1187.329257,1187.329257,1187.347046,1187.781343,space,0.440205,None,1187.782075,1187.880782,1188.194882,1188.18241,1188.182994,1188.194882,1188.194882,1188.194882,1189.767237,200,1,[1.5720590999990236],[1.5720704999985173],Participant_01,1,2025-11-10_12h43.05.183,Intentional binding_LAB,,2025.1.1,59.73230371,2025-11-10 12h43.20.345499 +0530
0.4,400,unexp,192,0,16,space,0.2588779,None,400,1,[1.3817071000230499],[1.3817156000004616],16,0,192,1,1189.782773,,1189.767544,1189.782773,1190.767947,1190.767947,1190.785207,1191.036415,space,0.2588779,None,1191.037142,1191.45211,1191.77133,1191.757811,1191.758332,1191.77133,1191.77133,1191.77133,1193.153297,400,1,[1.3817071000230499],[1.3817156000004616],Participant_01,1,2025-11-10_12h43.05.183,Intentional binding_LAB,,2025.1.1,59.73230371,2025-11-10 12h43.20.345499 +0530
0.4,1000,exp,193,1,16,space,0.3222591,None,450,1,[2.3585536000027787],[2.3585654000053182],16,1,193,7,1193.16903,,1193.153533,1193.16903,1194.154145,1194.154145,1194.173229,1194.488746,space,0.3222591,None,1194.489512,1194.889716,1195.199033,1195.184364,1195.185073,1195.199033,1195.199033,1195.199033,1197.557937,450,1,[2.3585536000027787],[2.3585654000053182],Participant_01,1,2025-11-10_12h43.05.183,Intentional binding_LAB,,2025.1.1,59.73230371,2025-11-10 12h43.20.345499 +0530
0.7,1000,exp,194,2,16,space,0.3837436,None,600,1,[0.9390852000215091],[0.9391042000206653],16,2,194,8,1197.573797,,1197.558256,1197.573797,1198.560481,1198.560481,1198.577186,1198.944862,space,0.3837436,None,1198.945754,1199.644199,1199.955991,1199.943725,1199.944383,1199.955991,1199.955991,1199.955991,1200.895374,600,1,[0.9390852000215091],[0.9391042000206653],Participant_01,1,2025-11-10_12h43.05.183,Intentional binding_LAB,,2025.1.1,59.73230371,2025-11-10 12h43.20.345499 +0530
0.4,1000,exp,195,3,16,space,0.3427289,None,400,1,[1.3303331999923103],[1.3303433999826666],16,3,195,10,1200.910843,,1200.895668,1200.910843,1201.897884,1201.897884,1201.914747,1202.24671,space,0.3427289,None,1202.247537,1202.646107,1202.952225,1202.940585,1202.941106,1202.952225,1202.952225,1202.952225,1204.282859,400,1,[1.3303331999923103],[1.3303433999826666],Participant_01,1,2025-11-10_12h43.05.183,Intentional binding_LAB,,2025.1.1,59.73230371,2025-11-10 12h43.20.345499 +0530
0.7,400,unexp,196,4,16,space,0.2868543,None,500,1,[1.7574232000042684],[1.7574337999976706],16,4,196,2,1204.298225,,1204.283172,1204.298225,1205.284265,1205.284265,1205.300501,1205.585357,space,0.2868543,None,1205.586474,1206.28587,1206.595963,1206.583344,1206.583999,1206.595963,1206.595963,1206.595963,1208.353694,500,1,[1.7574232000042684],[1.7574337999976706],Participant_01,1,2025-11-10_12h43.05.183,Intentional binding_LAB,,2025.1.1,59.73230371,2025-11-10 12h43.20.345499 +0530
0.1,1000,exp,197,5,16,space,0.4829559,None,400,1,[1.2343387000146322],[1.234349900012603],16,5,197,9,1208.368987,,1208.353987,1208.368987,1209.354763,1209.354763,1209.371526,1209.839031,space,0.4829559,None,1209.839877,1209.956184,1210.271911,1210.25639,1210.256999,1210.271911,1210.271911,1210.271911,1211.506656,400,1,[1.2343387000146322],[1.234349900012603],Participant_01,1,2025-11-10_12h43.05.183,Intentional binding_LAB,,2025.1.1,59.73230371,2025-11-10 12h43.20.345499 +0530
0.1,400,unexp,198,6,16,space,0.4231875,None,300,1,[1.8909694000030868],[1.8909796999942046],16,6,198,0,1211.522911,,1211.506957,1211.522911,1212.508823,1212.508823,1212.525597,1212.941969,space,0.4231875,None,1212.942832,1213.041107,1213.353756,1213.341308,1213.341904,1213.353756,1213.353756,1213.353756,1215.245022,300,1,[1.8909694000030868],[1.8909796999942046],Participant_01,1,2025-11-10_12h43.05.183,Intentional binding_LAB,,2025.1.1,59.73230371,2025-11-10 12h43.20.345499 +0530
0.4,1000,exp,199,7,16,space,0.6798692,None,500,1,[0.9723610999935772],[0.9723715000145603],16,7,199,4,1215.260566,,1215.245346,1215.260566,1216.244847,1216.244847,1216.262312,1216.929867,space,0.6798692,None,1216.9306,1217.329241,1217.642427,1217.629778,1217.630429,1217.642427,1217.642427,1217.642427,1218.615072,500,1,[0.9723610999935772],[0.9723715000145603],Participant_01,1,2025-11-10_12h43.05.183,Intentional binding_LAB,,2025.1.1,59.73230371,2025-11-10 12h43.20.345499 +0530
0.7,1000,exp,200,8,16,space,0.3582088,None,600,1,[1.0600366000144277],[1.060047000006307],16,8,200,5,1218.631086,,1218.615377,1218.631086,1219.615183,1219.615183,1219.631212,1219.982367,space,0.3582088,None,1219.982959,1220.683111,1220.991878,1220.980773,1220.981167,1220.991878,1220.991878,1220.991878,1222.05224,600,1,[1.0600366000144277],[1.060047000006307],Participant_01,1,2025-11-10_12h43.05.183,Intentional binding_LAB,,2025.1.1,59.73230371,2025-11-10 12h43.20.345499 +0530
0.1,1000,exp,201,9,16,space,0.4239171,None,300,1,[1.7948145000264049],[1.7948248000175226],16,9,201,3,1222.067014,,1222.052563,1222.067014,1223.05296,1223.05296,1223.069585,1223.486389,space,0.4239171,None,1223.487064,1223.587062,1223.894752,1223.882131,1223.882826,1223.894752,1223.894752,1223.894752,1225.68988,300,1,[1.7948145000264049],[1.7948248000175226],Participant_01,1,2025-11-10_12h43.05.183,Intentional binding_LAB,,2025.1.1,59.73230371,2025-11-10 12h43.20.345499 +0530
0.1,1000,exp,202,10,16,space,0.4379496,None,200,1,[1.0206126999983098],[1.0206310999928974],16,10,202,6,1225.70522,,1225.690318,1225.70522,1226.691124,1226.691124,1226.707542,1227.141703,space,0.4379496,None,1227.142653,1227.242027,1227.557558,1227.544776,1227.54547,1227.557558,1227.557558,1227.557558,1228.578496,200,1,[1.0206126999983098],[1.0206310999928974],Participant_01,1,2025-11-10_12h43.05.183,Intentional binding_LAB,,2025.1.1,59.73230371,2025-11-10 12h43.20.345499 +0530
0.7,1000,exp,203,11,16,space,0.2621274,None,500,1,[1.6718536000116728],[1.6718620999890845],16,11,203,11,1228.591906,,1228.578868,1228.591906,1229.5755,1229.5755,1229.593307,1229.844036,space,0.2621274,None,1229.844732,1230.544414,1230.858072,1230.845677,1230.846261,1230.858072,1230.858072,1230.858072,1232.530267,500,1,[1.6718536000116728],[1.6718620999890845],Participant_01,1,2025-11-10_12h43.05.183,Intentional binding_LAB,,2025.1.1,59.73230371,2025-11-10 12h43.20.345499 +0530
0.4,1000,exp,204,0,17,space,0.5322752,None,400,1,[1.504387900000438],[1.5043982999923173],17,0,204,10,1232.545654,,1232.530589,1232.545654,1233.531685,1233.531685,1233.548475,1234.065186,space,0.5322752,None,1234.06589,1234.466897,1234.77941,1234.766824,1234.767561,1234.77941,1234.77941,1234.77941,1236.284127,400,1,[1.504387900000438],[1.5043982999923173],Participant_01,1,2025-11-10_12h43.05.183,Intentional binding_LAB,,2025.1.1,59.73230371,2025-11-10 12h43.20.345499 +0530
0.1,1000,exp,205,1,17,space,0.3171385,None,100,1,[1.1731176000030246],[1.173127599991858],17,1,205,6,1236.300507,,1236.284439,1236.300507,1237.284992,1237.284992,1237.301172,1237.603653,space,0.3171385,None,1237.604325,1237.703029,1238.014269,1238.002311,1238.00289,1238.014269,1238.014269,1238.014269,1239.187704,100,1,[1.1731176000030246],[1.173127599991858],Participant_01,1,2025-11-10_12h43.05.183,Intentional binding_LAB,,2025.1.1,59.73230371,2025-11-10 12h43.20.345499 +0530
0.1,1000,exp,206,2,17,space,0.3300161,None,100,1,[1.1873146000143606],[1.1873264999885578],17,2,206,3,1239.203485,,1239.188007,1239.203485,1240.189963,1240.189963,1240.203781,1240.521909,space,0.3300161,None,1240.522804,1240.622794,1240.936202,1240.922275,1240.922867,1240.936202,1240.936202,1240.936202,1242.123952,100,1,[1.1873146000143606],[1.1873264999885578],Participant_01,1,2025-11-10_12h43.05.183,Intentional binding_LAB,,2025.1.1,59.73230371,2025-11-10 12h43.20.345499 +0530
