pos,corr_resp,thisN,thisTrialN,thisRepN,key_resp.keys,key_resp.corr,key_resp.rt,key_resp.duration,trials.thisRepN,trials.thisTrialN,trials.thisN,trials.thisIndex,trials_2.thisRepN,trials_2.thisTrialN,trials_2.thisN,trials_2.thisIndex,thisRow.t,notes,trial.started,fixation.started,line1.started,line2.started,line3.started,line4.started,fixation.stopped,probe.started,key_resp.started,trial.stopped,trials.key_resp.keys,trials.key_resp.corr,trials.key_resp.rt,trials.key_resp.duration,trials_2.key_resp.keys,trials_2.key_resp.corr,trials_2.key_resp.rt,trials_2.key_resp.duration,participant,session,date,expName,expVersion,psychopyVersion,frameRate,expStart,
-50,x,0,0,0,x,1,1.2201955000055023,None,0,0,0,0,,,,,0.0182935000048019,,0.013152000028640032,0.0182935000048019,1.0101294000050984,1.0101294000050984,1.0101294000050984,1.0101294000050984,1.0285364000010304,2.0102728999918327,2.0102728999918327,3.25327590003144,x,1,1.2201955000055023,None,,,,,participant 02,001,2025-10-03_16h57.26.625,Motor sequence task,,2025.1.1,59.848738282754496,2025-10-03 16h57.35.555990 +0530,
150,v,1,1,0,v,1,0.4350941000157036,None,0,1,1,1,,,,,3.2620368999778293,,3.2536532999947667,3.2620368999778293,4.2634780000080355,4.2634780000080355,4.2634780000080355,4.2634780000080355,4.2634780000080355,5.264835499983747,5.264835499983747,5.715205200016499,v,1,0.4350941000157036,None,,,,,participant 02,001,2025-10-03_16h57.26.625,Motor sequence task,,2025.1.1,59.848738282754496,2025-10-03 16h57.35.555990 +0530,
50,c,2,2,0,c,1,0.42214529996272177,None,0,2,2,2,,,,,5.731219200009946,,5.71566879999591,5.731219200009946,6.71562560001621,6.71562560001621,6.71562560001621,6.71562560001621,6.732521300029475,7.719095500011463,7.719095500011463,8.152167199994437,c,1,0.42214529996272177,None,,,,,participant 02,001,2025-10-03_16h57.26.625,Motor sequence task,,2025.1.1,59.848738282754496,2025-10-03 16h57.35.555990 +0530,
-150,z,3,3,0,z,1,0.40555359999416396,None,0,3,3,3,,,,,8.167821799986996,,8.152586699987296,8.167821799986996,9.153585300024133,9.153585300024133,9.153585300024133,9.153585300024133,9.169845700031146,10.155022800026927,10.155022800026927,10.573280100012198,z,1,0.40555359999416396,None,,,,,participant 02,001,2025-10-03_16h57.26.625,Motor sequence task,,2025.1.1,59.848738282754496,2025-10-03 16h57.35.555990 +0530,
-50,x,4,0,1,x,1,0.3634801000007428,None,1,0,4,0,,,,,10.586462799983565,,10.573704999987967,10.586462799983565,11.574005100002978,11.574005100002978,11.574005100002978,11.574005100002978,11.58939979999559,12.573651199985761,12.573651199985761,12.939216400031,x,1,0.3634801000007428,None,,,,,participant 02,001,2025-10-03_16h57.26.625,Motor sequence task,,2025.1.1,59.848738282754496,2025-10-03 16h57.35.555990 +0530,
150,v,5,1,1,v,1,0.3005629999679513,None,1,1,5,1,,,,,12.957775800023228,,12.939667200029362,12.957775800023228,13.941903900005855,13.941903900005855,13.941903900005855,13.941903900005855,13.958649799984414,14.943693900015205,14.943693900015205,15.261855999997351,v,1,0.3005629999679513,None,,,,,participant 02,001,2025-10-03_16h57.26.625,Motor sequence task,,2025.1.1,59.848738282754496,2025-10-03 16h57.35.555990 +0530,
50,c,6,2,1,c,1,0.4143135000485927,None,1,2,6,2,,,,,15.275946100009605,,15.262275999994017,15.275946100009605,16.261400800023694,16.261400800023694,16.261400800023694,16.261400800023694,16.278260399994906,17.261867600027472,17.261867600027472,17.679560800024774,c,1,0.4143135000485927,None,,,,,participant 02,001,2025-10-03_16h57.26.625,Motor sequence task,,2025.1.1,59.848738282754496,2025-10-03 16h57.35.555990 +0530,
-150,z,7,3,1,z,1,0.3211553000146523,None,1,3,7,3,,,,,17.694672500016168,,17.68002680002246,17.694672500016168,18.680908299982548,18.680908299982548,18.680908299982548,18.680908299982548,18.69733689998975,19.681725100032054,19.681725100032054,20.016458300000522,z,1,0.3211553000146523,None,,,,,participant 02,001,2025-10-03_16h57.26.625,Motor sequence task,,2025.1.1,59.848738282754496,2025-10-03 16h57.35.555990 +0530,
-50,x,8,0,2,x,1,0.41580429999157786,None,2,0,8,0,,,,,20.030161200033035,,20.01692030002596,20.030161200033035,21.016242999990936,21.016242999990936,21.016242999990936,21.016242999990936,21.033259699994233,22.018472200026736,22.018472200026736,22.451591700024437,x,1,0.41580429999157786,None,,,,,participant 02,001,2025-10-03_16h57.26.625,Motor sequence task,,2025.1.1,59.848738282754496,2025-10-03 16h57.35.555990 +0530,
150,v,9,1,2,v,1,0.3663494000211358,None,2,1,9,1,,,,,22.467682300019078,,22.452122399990913,22.467682300019078,23.452716600033455,23.452716600033455,23.452716600033455,23.452716600033455,23.469457000028342,24.451940300001297,24.451940300001297,24.821224400016945,v,1,0.3663494000211358,None,,,,,participant 02,001,2025-10-03_16h57.26.625,Motor sequence task,,2025.1.1,59.848738282754496,2025-10-03 16h57.35.555990 +0530,
50,c,10,2,2,c,1,0.30401780002284795,None,2,2,10,2,,,,,24.837760300026275,,24.82178070000373,24.837760300026275,25.821847199986223,25.821847199986223,25.821847199986223,25.821847199986223,25.838661700021476,26.823411600023974,26.823411600023974,27.14010150003014,c,1,0.30401780002284795,None,,,,,participant 02,001,2025-10-03_16h57.26.625,Motor sequence task,,2025.1.1,59.848738282754496,2025-10-03 16h57.35.555990 +0530,
-150,z,11,3,2,z,1,0.5129075000295416,None,2,3,11,3,,,,,27.155899600009434,,27.140603900013957,27.155899600009434,28.140196199994534,28.140196199994534,28.140196199994534,28.140196199994534,28.156212500005495,29.140709100000095,29.140709100000095,29.657716599991545,z,1,0.5129075000295416,None,,,,,participant 02,001,2025-10-03_16h57.26.625,Motor sequence task,,2025.1.1,59.848738282754496,2025-10-03 16h57.35.555990 +0530,
-50,x,12,0,3,x,1,0.2700976999476552,None,3,0,12,0,,,,,29.674263400025666,,29.658113899989985,29.674263400025666,30.660928199999034,30.660928199999034,30.660928199999034,30.660928199999034,30.677721699990798,31.661432199995033,31.661432199995033,31.943706799997017,x,1,0.2700976999476552,None,,,,,participant 02,001,2025-10-03_16h57.26.625,Motor sequence task,,2025.1.1,59.848738282754496,2025-10-03 16h57.35.555990 +0530,
150,v,13,1,3,v,1,0.11032019997946918,None,3,1,13,1,,,,,31.96164910000516,,31.94409230002202,31.96164910000516,32.9461570000276,32.9461570000276,32.9461570000276,32.9461570000276,32.96304170001531,33.945473600004334,33.945473600004334,34.06463259999873,v,1,0.11032019997946918,None,,,,,participant 02,001,2025-10-03_16h57.26.625,Motor sequence task,,2025.1.1,59.848738282754496,2025-10-03 16h57.35.555990 +0530,
50,c,14,2,3,c,1,0.6176184000214562,None,3,2,14,2,,,,,34.080896400031634,,34.06506490003085,34.080896400031634,35.063122100022156,35.063122100022156,35.063122100022156,35.063122100022156,35.099232300010044,36.066245800000615,36.066245800000615,36.68469149997691,c,1,0.6176184000214562,None,,,,,participant 02,001,2025-10-03_16h57.26.625,Motor sequence task,,2025.1.1,59.848738282754496,2025-10-03 16h57.35.555990 +0530,
-150,z,15,3,3,z,1,0.41499459999613464,None,3,3,15,3,,,,,36.699865599977784,,36.68512510001892,36.699865599977784,37.68268820003141,37.68268820003141,37.68268820003141,37.68268820003141,37.7014411999844,38.68372470000759,38.68372470000759,39.10321919998387,z,1,0.41499459999613464,None,,,,,participant 02,001,2025-10-03_16h57.26.625,Motor sequence task,,2025.1.1,59.848738282754496,2025-10-03 16h57.35.555990 +0530,
-50,x,16,0,4,x,1,0.20809219998773187,None,4,0,16,0,,,,,39.12025129998801,,39.103635900013614,39.12025129998801,40.10275459999684,40.10275459999684,40.10275459999684,40.10275459999684,40.121327899978496,41.103864400007296,41.103864400007296,41.32260469999164,x,1,0.20809219998773187,None,,,,,participant 02,001,2025-10-03_16h57.26.625,Motor sequence task,,2025.1.1,59.848738282754496,2025-10-03 16h57.35.555990 +0530,
150,v,17,1,4,v,1,0.16992789995856583,None,4,1,17,1,,,,,41.33774709998397,,41.323043100012,41.33774709998397,42.32297959999414,42.32297959999414,42.32297959999414,42.32297959999414,42.33911420003278,43.3228902000119,43.3228902000119,43.50788729998749,v,1,0.16992789995856583,None,,,,,participant 02,001,2025-10-03_16h57.26.625,Motor sequence task,,2025.1.1,59.848738282754496,2025-10-03 16h57.35.555990 +0530,
50,c,18,2,4,c,1,0.2970695999683812,None,4,2,18,2,,,,,43.52381520002382,,43.508334600017406,43.52381520002382,44.50727290002396,44.50727290002396,44.50727290002396,44.50727290002396,44.525793400011025,45.51125709997723,45.51125709997723,45.810720500012394,c,1,0.2970695999683812,None,,,,,participant 02,001,2025-10-03_16h57.26.625,Motor sequence task,,2025.1.1,59.848738282754496,2025-10-03 16h57.35.555990 +0530,
-150,z,19,3,4,z,1,0.13054350001038983,None,4,3,19,3,,,,,45.82635960000334,,45.811170600005426,45.82635960000334,46.81154720002087,46.81154720002087,46.81154720002087,46.81154720002087,46.82837519998429,47.81215820001671,47.81215820001671,47.946342499984894,z,1,0.13054350001038983,None,,,,,participant 02,001,2025-10-03_16h57.26.625,Motor sequence task,,2025.1.1,59.848738282754496,2025-10-03 16h57.35.555990 +0530,
-50,x,20,0,5,x,1,0.5441022999584675,None,5,0,20,0,,,,,47.96180470002582,,47.946768300025724,47.96180470002582,48.94595630001277,48.94595630001277,48.94595630001277,48.94595630001277,48.96388370002387,49.94607509998605,49.94607509998605,50.49710520001827,x,1,0.5441022999584675,None,,,,,participant 02,001,2025-10-03_16h57.26.625,Motor sequence task,,2025.1.1,59.848738282754496,2025-10-03 16h57.35.555990 +0530,
150,v,21,1,5,v,1,0.3626829000422731,None,5,1,21,1,,,,,50.514182000013534,,50.49748499999987,50.514182000013534,51.50021430000197,51.50021430000197,51.50021430000197,51.50021430000197,51.51594250003109,52.50173950003227,52.50173950003227,52.86932440003147,v,1,0.3626829000422731,None,,,,,participant 02,001,2025-10-03_16h57.26.625,Motor sequence task,,2025.1.1,59.848738282754496,2025-10-03 16h57.35.555990 +0530,
50,c,22,2,5,c,1,0.666893900022842,None,5,2,22,2,,,,,52.882553300005384,,52.86985239997739,52.882553300005384,53.87005580001278,53.87005580001278,53.87005580001278,53.87005580001278,53.88643650000449,54.87082459998783,54.87082459998783,55.538535100000445,c,1,0.666893900022842,None,,,,,participant 02,001,2025-10-03_16h57.26.625,Motor sequence task,,2025.1.1,59.848738282754496,2025-10-03 16h57.35.555990 +0530,
-150,z,23,3,5,z,1,0.380057200032752,None,5,3,23,3,,,,,55.55479580000974,,55.53898030001437,55.55479580000974,56.538119499979075,56.538119499979075,56.538119499979075,56.538119499979075,56.554883699980564,57.540277799998876,57.540277799998876,57.924986199999694,z,1,0.380057200032752,None,,,,,participant 02,001,2025-10-03_16h57.26.625,Motor sequence task,,2025.1.1,59.848738282754496,2025-10-03 16h57.35.555990 +0530,
-50,x,24,0,6,x,1,0.2441545000183396,None,6,0,24,0,,,,,57.93944879999617,,57.92551790003199,57.93944879999617,58.92487250000704,58.92487250000704,58.92487250000704,58.92487250000704,58.94176990003325,59.92729900003178,59.92729900003178,60.175550499989185,x,1,0.2441545000183396,None,,,,,participant 02,001,2025-10-03_16h57.26.625,Motor sequence task,,2025.1.1,59.848738282754496,2025-10-03 16h57.35.555990 +0530,
150,v,25,1,6,v,1,0.26651699998183176,None,6,1,25,1,,,,,60.192518800031394,,60.17598609998822,60.192518800031394,61.176558599981945,61.176558599981945,61.176558599981945,61.176558599981945,61.194306700024754,62.17898060003063,62.17898060003063,62.46182319999207,v,1,0.26651699998183176,None,,,,,participant 02,001,2025-10-03_16h57.26.625,Motor sequence task,,2025.1.1,59.848738282754496,2025-10-03 16h57.35.555990 +0530,
50,c,26,2,6,c,1,0.42741910001495853,None,6,2,26,2,,,,,62.47743690002244,,62.462281199987046,62.47743690002244,63.463484000007156,63.463484000007156,63.463484000007156,63.463484000007156,63.47802199999569,64.46435120003298,64.46435120003298,64.90024450002238,c,1,0.42741910001495853,None,,,,,participant 02,001,2025-10-03_16h57.26.625,Motor sequence task,,2025.1.1,59.848738282754496,2025-10-03 16h57.35.555990 +0530,
-150,z,27,3,6,z,1,0.4910397999919951,None,6,3,27,3,,,,,64.91402800002834,,64.90075279999292,64.91402800002834,65.91611310001463,65.91611310001463,65.91611310001463,65.91611310001463,65.91611310001463,66.90042650001124,66.90042650001124,67.40127859998029,z,1,0.4910397999919951,None,,,,,participant 02,001,2025-10-03_16h57.26.625,Motor sequence task,,2025.1.1,59.848738282754496,2025-10-03 16h57.35.555990 +0530,
-50,x,28,0,7,x,1,0.33108770003309473,None,7,0,28,0,,,,,67.41650470002787,,67.40173630003119,67.41650470002787,68.40220890002092,68.40220890002092,68.40220890002092,68.40220890002092,68.41748250002274,69.40291569998953,69.40291569998953,69.73676170001272,x,1,0.33108770003309473,None,,,,,participant 02,001,2025-10-03_16h57.26.625,Motor sequence task,,2025.1.1,59.848738282754496,2025-10-03 16h57.35.555990 +0530,
150,v,29,1,7,v,1,0.29302219999954104,None,7,1,29,1,,,,,69.75325110001722,,69.7371902000159,69.75325110001722,70.73594169999706,70.73594169999706,70.73594169999706,70.73594169999706,70.75305250001838,71.73846670001512,71.73846670001512,72.03889979998348,v,1,0.29302219999954104,None,,,,,participant 02,001,2025-10-03_16h57.26.625,Motor sequence task,,2025.1.1,59.848738282754496,2025-10-03 16h57.35.555990 +0530,
50,c,30,2,7,c,1,0.35455270000966266,None,7,2,30,2,,,,,72.05436349997763,,72.03935929998988,72.05436349997763,73.03950559999794,73.03950559999794,73.03950559999794,73.03950559999794,73.05534920003265,74.04127360001439,74.04127360001439,74.40980810002657,c,1,0.35455270000966266,None,,,,,participant 02,001,2025-10-03_16h57.26.625,Motor sequence task,,2025.1.1,59.848738282754496,2025-10-03 16h57.35.555990 +0530,
-150,z,31,3,7,z,1,0.2610034000244923,None,7,3,31,3,,,,,74.42598539998289,,74.41034870001022,74.42598539998289,75.40968169999542,75.40968169999542,75.40968169999542,75.40968169999542,75.42740560002858,76.41026149998652,76.41026149998652,76.67897569999332,z,1,0.2610034000244923,None,,,,,participant 02,001,2025-10-03_16h57.26.625,Motor sequence task,,2025.1.1,59.848738282754496,2025-10-03 16h57.35.555990 +0530,
-50,x,32,0,8,x,1,0.28096579998964444,None,8,0,32,0,,,,,76.69209830003092,,76.6794323999784,76.69209830003092,77.67865409998922,77.67865409998922,77.67865409998922,77.67865409998922,77.69556910003303,78.67962770001031,78.67962770001031,78.96386670001084,x,1,0.28096579998964444,None,,,,,participant 02,001,2025-10-03_16h57.26.625,Motor sequence task,,2025.1.1,59.848738282754496,2025-10-03 16h57.35.555990 +0530,
150,v,33,1,8,v,1,0.17304219998186454,None,8,1,33,1,,,,,78.97930750000523,,78.96444970002631,78.97930750000523,79.98057259997586,79.98057259997586,79.98057259997586,79.98057259997586,79.98057259997586,80.96450060000643,80.96450060000643,81.15000349999173,v,1,0.17304219998186454,None,,,,,participant 02,001,2025-10-03_16h57.26.625,Motor sequence task,,2025.1.1,59.848738282754496,2025-10-03 16h57.35.555990 +0530,
50,c,34,2,8,c,1,0.31174830003874376,None,8,2,34,2,,,,,81.16568340000231,,81.1505557000055,81.16568340000231,82.16683469997952,82.16683469997952,82.16683469997952,82.16683469997952,82.16683469997952,83.15096769999946,83.15096769999946,83.46660970000084,c,1,0.31174830003874376,None,,,,,participant 02,001,2025-10-03_16h57.26.625,Motor sequence task,,2025.1.1,59.848738282754496,2025-10-03 16h57.35.555990 +0530,
-150,z,35,3,8,z,1,0.27337720000650734,None,8,3,35,3,,,,,83.48355549998814,,83.46708059997763,83.48355549998814,84.46770989999641,84.46770989999641,84.46770989999641,84.46770989999641,84.48403280001367,85.46947010001168,85.46947010001168,85.75493400002597,z,1,0.27337720000650734,None,,,,,participant 02,001,2025-10-03_16h57.26.625,Motor sequence task,,2025.1.1,59.848738282754496,2025-10-03 16h57.35.555990 +0530,
-50,x,36,0,9,x,1,0.4587226999574341,None,9,0,36,0,,,,,85.77214399998775,,85.75544480001554,85.77214399998775,86.75500070000999,86.75500070000999,86.75500070000999,86.75500070000999,86.77236659999471,87.75565700000152,87.75565700000152,88.22274749999633,x,1,0.4587226999574341,None,,,,,participant 02,001,2025-10-03_16h57.26.625,Motor sequence task,,2025.1.1,59.848738282754496,2025-10-03 16h57.35.555990 +0530,
150,v,37,1,9,v,1,0.409128499974031,None,9,1,37,1,,,,,88.2406248000334,,88.22319510002853,88.2406248000334,89.22505479998654,89.22505479998654,89.22505479998654,89.22505479998654,89.24266320001334,90.22531820001313,90.22531820001313,90.6428101999918,v,1,0.409128499974031,None,,,,,participant 02,001,2025-10-03_16h57.26.625,Motor sequence task,,2025.1.1,59.848738282754496,2025-10-03 16h57.35.555990 +0530,
50,c,38,2,9,c,1,0.3859870999585837,None,9,2,38,2,,,,,90.65970680001192,,90.64330330002122,90.65970680001192,91.64455369999632,91.64455369999632,91.64455369999632,91.64455369999632,91.661248599994,92.64530740003102,92.64530740003102,93.04677559999982,c,1,0.3859870999585837,None,,,,,participant 02,001,2025-10-03_16h57.26.625,Motor sequence task,,2025.1.1,59.848738282754496,2025-10-03 16h57.35.555990 +0530,
-150,z,39,3,9,z,1,0.3654639000305906,None,9,3,39,3,,,,,93.06013789999997,,93.04722780000884,93.06013789999997,94.04703369998606,94.04703369998606,94.04703369998606,94.04703369998606,94.06442499998957,95.04608210001606,95.04608210001606,95.41834720002953,z,1,0.3654639000305906,None,,,,,participant 02,001,2025-10-03_16h57.26.625,Motor sequence task,,2025.1.1,59.848738282754496,2025-10-03 16h57.35.555990 +0530,
-50,x,40,0,10,x,1,0.21831600001314655,None,10,0,40,0,,,,,95.42909789999248,,95.41878780000843,95.42909789999248,96.43290970003,96.43290970003,96.43290970003,96.43290970003,96.43290970003,97.43369949999033,97.43369949999033,97.66749100002926,x,1,0.21831600001314655,None,,,,,participant 02,001,2025-10-03_16h57.26.625,Motor sequence task,,2025.1.1,59.848738282754496,2025-10-03 16h57.35.555990 +0530,
150,v,41,1,10,v,1,0.3138353000395,None,10,1,41,1,,,,,97.68441280000843,,97.66787649999605,97.68441280000843,98.66722679999657,98.66722679999657,98.66722679999657,98.66722679999657,98.68542420002632,99.66822350001894,99.66822350001894,99.98690110002644,v,1,0.3138353000395,None,,,,,participant 02,001,2025-10-03_16h57.26.625,Motor sequence task,,2025.1.1,59.848738282754496,2025-10-03 16h57.35.555990 +0530,
50,c,42,2,10,c,1,0.18732900003669783,None,10,2,42,2,,,,,100.00225830002455,,99.98742239997955,100.00225830002455,100.98634110001149,100.98634110001149,100.98634110001149,100.98634110001149,101.00512749998597,101.98932100000093,101.98932100000093,102.19049210002413,c,1,0.18732900003669783,None,,,,,participant 02,001,2025-10-03_16h57.26.625,Motor sequence task,,2025.1.1,59.848738282754496,2025-10-03 16h57.35.555990 +0530,
-150,z,43,3,10,z,1,0.33072299999184906,None,10,3,43,3,,,,,102.20629589998862,,102.19093789998442,102.20629589998862,103.19054069998674,103.19054069998674,103.19054069998674,103.19054069998674,103.20724820002215,104.19081360002747,104.19081360002747,104.52498550002929,z,1,0.33072299999184906,None,,,,,participant 02,001,2025-10-03_16h57.26.625,Motor sequence task,,2025.1.1,59.848738282754496,2025-10-03 16h57.35.555990 +0530,
-50,x,44,0,11,x,1,0.5542864000308327,None,11,0,44,0,,,,,104.54057930002455,,104.5254684999818,104.54057930002455,105.52443470002618,105.52443470002618,105.52443470002618,105.52443470002618,105.54185789998155,106.52836240001488,106.52836240001488,107.09787549998146,x,1,0.5542864000308327,None,,,,,participant 02,001,2025-10-03_16h57.26.625,Motor sequence task,,2025.1.1,59.848738282754496,2025-10-03 16h57.35.555990 +0530,
150,v,45,1,11,v,1,0.30005949997575954,None,11,1,45,1,,,,,107.10898880002787,,107.09845879999921,107.10898880002787,108.11434829997597,108.11434829997597,108.11434829997597,108.11434829997597,108.11434829997597,109.09828310000012,109.09828310000012,109.41296970000258,v,1,0.30005949997575954,None,,,,,participant 02,001,2025-10-03_16h57.26.625,Motor sequence task,,2025.1.1,59.848738282754496,2025-10-03 16h57.35.555990 +0530,
50,c,46,2,11,c,1,0.4178300999919884,None,11,2,46,2,,,,,109.43065880000358,,109.4133729999885,109.43065880000358,110.41433589998633,110.41433589998633,110.41433589998633,110.41433589998633,110.4312709000078,111.41573860001517,111.41573860001517,111.8343677999801,c,1,0.4178300999919884,None,,,,,participant 02,001,2025-10-03_16h57.26.625,Motor sequence task,,2025.1.1,59.848738282754496,2025-10-03 16h57.35.555990 +0530,
-150,z,47,3,11,z,1,0.32483789999969304,None,11,3,47,3,,,,,111.84734839998418,,111.83483950002119,111.84734839998418,112.8366032000049,112.8366032000049,112.8366032000049,112.8366032000049,112.84870620002039,113.83455179998418,113.83455179998418,114.17001360002905,z,1,0.32483789999969304,None,,,,,participant 02,001,2025-10-03_16h57.26.625,Motor sequence task,,2025.1.1,59.848738282754496,2025-10-03 16h57.35.555990 +0530,
-50,x,48,0,12,x,1,0.19154729996807873,None,12,0,48,0,,,,,114.18517599999905,,114.1706180999754,114.18517599999905,115.16992439999012,115.16992439999012,115.16992439999012,115.16992439999012,115.18612780002877,116.17041229997994,116.17041229997994,116.3702670999919,x,1,0.19154729996807873,None,,,,,participant 02,001,2025-10-03_16h57.26.625,Motor sequence task,,2025.1.1,59.848738282754496,2025-10-03 16h57.35.555990 +0530,
150,v,49,1,12,v,1,0.31536539999069646,None,12,1,49,1,,,,,116.38698980002664,,116.37065440003062,116.38698980002664,117.37229839997599,117.37229839997599,117.37229839997599,117.37229839997599,117.38931900000898,118.37383689999115,118.37383689999115,118.70773120003287,v,1,0.31536539999069646,None,,,,,participant 02,001,2025-10-03_16h57.26.625,Motor sequence task,,2025.1.1,59.848738282754496,2025-10-03 16h57.35.555990 +0530,
50,c,50,2,12,c,1,0.2858492999803275,None,12,2,50,2,,,,,118.72403290000511,,118.70817019999959,118.72403290000511,119.70898900000611,119.70898900000611,119.70898900000611,119.70898900000611,119.7245540000149,120.70929909998085,120.70929909998085,121.00781310000457,c,1,0.2858492999803275,None,,,,,participant 02,001,2025-10-03_16h57.26.625,Motor sequence task,,2025.1.1,59.848738282754496,2025-10-03 16h57.35.555990 +0530,
-150,z,51,3,12,z,1,0.31958229996962473,None,12,3,51,3,,,,,121.026399400027,,121.00819700001739,121.026399400027,122.00979650003137,122.00979650003137,122.00979650003137,122.00979650003137,122.0261962999939,123.01176090002991,123.01176090002991,123.34634679998271,z,1,0.31958229996962473,None,,,,,participant 02,001,2025-10-03_16h57.26.625,Motor sequence task,,2025.1.1,59.848738282754496,2025-10-03 16h57.35.555990 +0530,
-50,x,52,0,13,x,1,0.4369971000123769,None,13,0,52,0,,,,,123.36293280002428,,123.34685069997795,123.36293280002428,124.34723830001894,124.34723830001894,124.34723830001894,124.34723830001894,124.36416200001258,125.34776710002916,125.34776710002916,125.79668550001225,x,1,0.4369971000123769,None,,,,,participant 02,001,2025-10-03_16h57.26.625,Motor sequence task,,2025.1.1,59.848738282754496,2025-10-03 16h57.35.555990 +0530,
150,v,53,1,13,v,1,0.5454767000046559,None,13,1,53,1,,,,,125.81530220003333,,125.79714209999656,125.81530220003333,126.79932659998303,126.79932659998303,126.79932659998303,126.79932659998303,126.81566429999657,127.79899510001997,127.79899510001997,128.35166540002683,v,1,0.5454767000046559,None,,,,,participant 02,001,2025-10-03_16h57.26.625,Motor sequence task,,2025.1.1,59.848738282754496,2025-10-03 16h57.35.555990 +0530,
50,c,54,2,13,c,1,0.8735193000175059,None,13,2,54,2,,,,,128.36717230000068,,128.35210279998137,128.36717230000068,129.35411309998017,129.35411309998017,129.35411309998017,129.35411309998017,129.3683060000185,130.35318899998674,130.35318899998674,131.23876370000653,c,1,0.8735193000175059,None,,,,,participant 02,001,2025-10-03_16h57.26.625,Motor sequence task,,2025.1.1,59.848738282754496,2025-10-03 16h57.35.555990 +0530,
-150,z,55,3,13,z,1,0.30734709999524057,None,13,3,55,3,,,,,131.2546381999855,,131.2392364999978,131.2546381999855,132.23865160002606,132.23865160002606,132.23865160002606,132.23865160002606,132.2554827000131,133.23952400003327,133.23952400003327,133.55942020000657,z,1,0.30734709999524057,None,,,,,participant 02,001,2025-10-03_16h57.26.625,Motor sequence task,,2025.1.1,59.848738282754496,2025-10-03 16h57.35.555990 +0530,
-50,x,56,0,14,x,1,0.021204999997280538,None,14,0,56,0,,,,,133.57140190002974,,133.55986879998818,133.57140190002974,134.5748598999926,134.5748598999926,134.5748598999926,134.5748598999926,134.5748598999926,135.55682579998393,135.55682579998393,135.59340060001705,x,1,0.021204999997280538,None,,,,,participant 02,001,2025-10-03_16h57.26.625,Motor sequence task,,2025.1.1,59.848738282754496,2025-10-03 16h57.35.555990 +0530,
150,v,57,1,14,v,1,0.28359579999232665,None,14,1,57,1,,,,,135.60669139999663,,135.59394719998818,135.60669139999663,136.59364799998002,136.59364799998002,136.59364799998002,136.59364799998002,136.61121880001156,137.59494640002958,137.59494640002958,137.87941519997548,v,1,0.28359579999232665,None,,,,,participant 02,001,2025-10-03_16h57.26.625,Motor sequence task,,2025.1.1,59.848738282754496,2025-10-03 16h57.35.555990 +0530,
50,c,58,2,14,c,1,0.3367238999926485,None,14,2,58,2,,,,,137.89277749997564,,137.88001120003173,137.89277749997564,138.8793963000062,138.8793963000062,138.8793963000062,138.8793963000062,138.89637849997962,139.88182950002374,139.88182950002374,140.23246879997896,c,1,0.3367238999926485,None,,,,,participant 02,001,2025-10-03_16h57.26.625,Motor sequence task,,2025.1.1,59.848738282754496,2025-10-03 16h57.35.555990 +0530,
-150,z,59,3,14,z,1,0.4021964999847114,None,14,3,59,3,,,,,140.2469064000179,,140.23317740001949,140.2469064000179,141.24796619999688,141.24796619999688,141.24796619999688,141.24796619999688,141.24796619999688,142.23331959999632,142.23331959999632,142.6517703999998,z,1,0.4021964999847114,None,,,,,participant 02,001,2025-10-03_16h57.26.625,Motor sequence task,,2025.1.1,59.848738282754496,2025-10-03 16h57.35.555990 +0530,
-50,x,60,0,15,x,1,0.42671689996495843,None,15,0,60,0,,,,,142.665720399993,,142.6522330000298,142.665720399993,143.6521369999973,143.6521369999973,143.6521369999973,143.6521369999973,143.6654590999824,144.6524782999768,144.6524782999768,145.08637460001046,x,1,0.42671689996495843,None,,,,,participant 02,001,2025-10-03_16h57.26.625,Motor sequence task,,2025.1.1,59.848738282754496,2025-10-03 16h57.35.555990 +0530,
150,v,61,1,15,v,1,0.42904290003934875,None,15,1,61,1,,,,,145.10154300002614,,145.0868423000211,145.10154300002614,146.0867204000242,146.0867204000242,146.0867204000242,146.0867204000242,146.10265499999514,147.088865800004,147.088865800004,147.52293390000705,v,1,0.42904290003934875,None,,,,,participant 02,001,2025-10-03_16h57.26.625,Motor sequence task,,2025.1.1,59.848738282754496,2025-10-03 16h57.35.555990 +0530,
50,c,62,2,15,c,1,0.12034409999614581,None,15,2,62,2,,,,,147.53823230002308,,147.52335169998696,147.53823230002308,148.5389302999829,148.5389302999829,148.5389302999829,148.5389302999829,148.5389302999829,149.5245172000141,149.5245172000141,149.65802799997618,c,1,0.12034409999614581,None,,,,,participant 02,001,2025-10-03_16h57.26.625,Motor sequence task,,2025.1.1,59.848738282754496,2025-10-03 16h57.35.555990 +0530,
-150,z,63,3,15,z,1,0.0027106000343337655,None,15,3,63,3,,,,,149.6749026000034,,149.65856290003285,149.6749026000034,150.66011130000697,150.66011130000697,150.66011130000697,150.66011130000697,150.6749995999853,151.66012499999488,151.66012499999488,151.67752149997978,z,1,0.0027106000343337655,None,,,,,participant 02,001,2025-10-03_16h57.26.625,Motor sequence task,,2025.1.1,59.848738282754496,2025-10-03 16h57.35.555990 +0530,
-50,x,64,0,16,x,1,0.5850568999885581,None,16,0,64,0,,,,,151.69301950000226,,151.67808939999668,151.69301950000226,152.67767549998825,152.67767549998825,152.67767549998825,152.67767549998825,152.69565670000156,153.67819639999652,153.67819639999652,154.2640737000038,x,1,0.5850568999885581,None,,,,,participant 02,001,2025-10-03_16h57.26.625,Motor sequence task,,2025.1.1,59.848738282754496,2025-10-03 16h57.35.555990 +0530,
150,v,65,1,16,v,1,0.4214299999875948,None,16,1,65,1,,,,,154.28107099997578,,154.2646446999861,154.28107099997578,155.26423089997843,155.26423089997843,155.26423089997843,155.26423089997843,155.28166510001756,156.26536479999777,156.26536479999777,156.6997887000325,v,1,0.4214299999875948,None,,,,,participant 02,001,2025-10-03_16h57.26.625,Motor sequence task,,2025.1.1,59.848738282754496,2025-10-03 16h57.35.555990 +0530,
50,c,66,2,16,c,1,0.30011670000385493,None,16,2,66,2,,,,,156.71476010000333,,156.70029130001785,156.71476010000333,157.69895109999925,157.69895109999925,157.69895109999925,157.69895109999925,157.71615870000096,158.69902230001753,158.69902230001753,159.00052380003035,c,1,0.30011670000385493,None,,,,,participant 02,001,2025-10-03_16h57.26.625,Motor sequence task,,2025.1.1,59.848738282754496,2025-10-03 16h57.35.555990 +0530,
-150,z,67,3,16,z,1,0.26928160001989454,None,16,3,67,3,,,,,159.01741889998084,,159.00105580000672,159.01741889998084,160.00098930002423,160.00098930002423,160.00098930002423,160.00098930002423,160.017593400029,161.00148730003275,161.00148730003275,161.28625730000203,z,1,0.26928160001989454,None,,,,,participant 02,001,2025-10-03_16h57.26.625,Motor sequence task,,2025.1.1,59.848738282754496,2025-10-03 16h57.35.555990 +0530,
-50,x,68,0,17,x,1,0.28292720002355054,None,17,0,68,0,,,,,161.30240739998408,,161.28667970001698,161.30240739998408,162.28802460001316,162.28802460001316,162.28802460001316,162.28802460001316,162.30489829997532,163.28976740001235,163.28976740001235,163.57430560002103,x,1,0.28292720002355054,None,,,,,participant 02,001,2025-10-03_16h57.26.625,Motor sequence task,,2025.1.1,59.848738282754496,2025-10-03 16h57.35.555990 +0530,
150,v,69,1,17,v,1,0.4754584999755025,None,17,1,69,1,,,,,163.58731309999712,,163.57476290001068,163.58731309999712,164.57437460002257,164.57437460002257,164.57437460002257,164.57437460002257,164.59115230001044,165.59171760000754,165.59171760000754,166.0770776999998,v,1,0.4754584999755025,None,,,,,participant 02,001,2025-10-03_16h57.26.625,Motor sequence task,,2025.1.1,59.848738282754496,2025-10-03 16h57.35.555990 +0530,
50,c,70,2,17,c,1,0.39148049999494106,None,17,2,70,2,,,,,166.09305080003105,,166.07758600002853,166.09305080003105,167.08082239999203,167.08082239999203,167.08082239999203,167.08082239999203,167.09370050003054,168.07581359997857,168.07581359997857,168.47882150002988,c,1,0.39148049999494106,None,,,,,participant 02,001,2025-10-03_16h57.26.625,Motor sequence task,,2025.1.1,59.848738282754496,2025-10-03 16h57.35.555990 +0530,
-150,z,71,3,17,z,1,0.6273593999794684,None,17,3,71,3,,,,,168.49418759997934,,168.47936719999416,168.49418759997934,169.478480699996,169.478480699996,169.478480699996,169.478480699996,169.49606720003067,170.4823148000287,170.4823148000287,171.11405809997814,z,1,0.6273593999794684,None,,,,,participant 02,001,2025-10-03_16h57.26.625,Motor sequence task,,2025.1.1,59.848738282754496,2025-10-03 16h57.35.555990 +0530,
-50,x,72,0,18,x,1,0.4842320999596268,None,18,0,72,0,,,,,171.13104940002086,,171.11455900000874,171.13104940002086,172.1150772999972,172.1150772999972,172.1150772999972,172.1150772999972,172.13211140001658,173.11574470001506,173.11574470001506,173.60157459997572,x,1,0.4842320999596268,None,,,,,participant 02,001,2025-10-03_16h57.26.625,Motor sequence task,,2025.1.1,59.848738282754496,2025-10-03 16h57.35.555990 +0530,
150,v,73,1,18,v,1,0.3704056999995373,None,18,1,73,1,,,,,173.6169421999948,,173.60203950002324,173.6169421999948,174.60107189998962,174.60107189998962,174.60107189998962,174.60107189998962,174.61825350002619,175.60399470000993,175.60399470000993,175.98695910000242,v,1,0.3704056999995373,None,,,,,participant 02,001,2025-10-03_16h57.26.625,Motor sequence task,,2025.1.1,59.848738282754496,2025-10-03 16h57.35.555990 +0530,
50,c,74,2,18,c,1,0.4786539999768138,None,18,2,74,2,,,,,176.0036384999985,,175.98747340001864,176.0036384999985,176.9888569000177,176.9888569000177,176.9888569000177,176.9888569000177,177.00360480003292,177.98736259998986,177.98736259998986,178.50660279998556,c,1,0.4786539999768138,None,,,,,participant 02,001,2025-10-03_16h57.26.625,Motor sequence task,,2025.1.1,59.848738282754496,2025-10-03 16h57.35.555990 +0530,
-150,z,75,3,18,z,1,0.9783571999869309,None,18,3,75,3,,,,,178.52166670002043,,178.5072482000105,178.52166670002043,179.52466420002747,179.52466420002747,179.52466420002747,179.52466420002747,179.52466420002747,180.50901420001173,180.50901420001173,181.49250759999268,z,1,0.9783571999869309,None,,,,,participant 02,001,2025-10-03_16h57.26.625,Motor sequence task,,2025.1.1,59.848738282754496,2025-10-03 16h57.35.555990 +0530,
-50,x,76,0,19,x,1,0.3807321999920532,None,19,0,76,0,,,,,181.508497599978,,181.4929028999759,181.508497599978,182.4933122000075,182.4933122000075,182.4933122000075,182.4933122000075,182.51052950002486,183.49353919998975,183.49353919998975,183.8789145000046,x,1,0.3807321999920532,None,,,,,participant 02,001,2025-10-03_16h57.26.625,Motor sequence task,,2025.1.1,59.848738282754496,2025-10-03 16h57.35.555990 +0530,
150,v,77,1,19,v,1,0.3644320999737829,None,19,1,77,1,,,,,183.89437130000442,,183.87935449997894,183.89437130000442,184.8795302999788,184.8795302999788,184.8795302999788,184.8795302999788,184.89624540001387,185.88064350001514,185.88064350001514,186.24782420002157,v,1,0.3644320999737829,None,,,,,participant 02,001,2025-10-03_16h57.26.625,Motor sequence task,,2025.1.1,59.848738282754496,2025-10-03 16h57.35.555990 +0530,
50,c,78,2,19,c,1,0.4195843999623321,None,19,2,78,2,,,,,186.26448810001602,,186.24823010002729,186.26448810001602,187.24912360002054,187.24912360002054,187.24912360002054,187.24912360002054,187.26593559997855,188.24862760002725,188.24862760002725,188.68410650000442,c,1,0.4195843999623321,None,,,,,participant 02,001,2025-10-03_16h57.26.625,Motor sequence task,,2025.1.1,59.848738282754496,2025-10-03 16h57.35.555990 +0530,
-150,z,79,3,19,z,1,0.35918169998330995,None,19,3,79,3,,,,,188.70168140000897,,188.68449299997883,188.70168140000897,189.68461549998028,189.68461549998028,189.68461549998028,189.68461549998028,189.70086560002528,190.68436200002907,190.68436200002907,191.0527846000041,z,1,0.35918169998330995,None,,,,,participant 02,001,2025-10-03_16h57.26.625,Motor sequence task,,2025.1.1,59.848738282754496,2025-10-03 16h57.35.555990 +0530,
-50,x,80,0,20,x,1,0.5046319999964908,None,20,0,80,0,,,,,191.06844469998032,,191.05323070002487,191.06844469998032,192.0531592000043,192.0531592000043,192.0531592000043,192.0531592000043,192.07017359999008,193.05364260001807,193.05364260001807,193.57253589999164,x,1,0.5046319999964908,None,,,,,participant 02,001,2025-10-03_16h57.26.625,Motor sequence task,,2025.1.1,59.848738282754496,2025-10-03 16h57.35.555990 +0530,
150,v,81,1,20,v,1,0.30533080000896007,None,20,1,81,1,,,,,193.5879447000334,,193.57296309998492,193.5879447000334,194.57336019998183,194.57336019998183,194.57336019998183,194.57336019998183,194.58948949998012,195.5757446999778,195.5757446999778,195.8921326000127,v,1,0.30533080000896007,None,,,,,participant 02,001,2025-10-03_16h57.26.625,Motor sequence task,,2025.1.1,59.848738282754496,2025-10-03 16h57.35.555990 +0530,
50,c,82,2,20,c,1,0.30437530000926927,None,20,2,82,2,,,,,195.9094802000327,,195.8926472000312,195.9094802000327,196.89323990000412,196.89323990000412,196.89323990000412,196.89323990000412,196.9100555999903,197.8936089000199,197.8936089000199,198.211951699981,c,1,0.30437530000926927,None,,,,,participant 02,001,2025-10-03_16h57.26.625,Motor sequence task,,2025.1.1,59.848738282754496,2025-10-03 16h57.35.555990 +0530,
-150,z,83,3,20,z,1,0.5518472000258043,None,20,3,83,3,,,,,198.2280693000066,,198.21268150000833,198.2280693000066,199.2124815999996,199.2124815999996,199.2124815999996,199.2124815999996,199.22830120002618,200.21104989998275,200.21104989998275,200.76465550001012,z,1,0.5518472000258043,None,,,,,participant 02,001,2025-10-03_16h57.26.625,Motor sequence task,,2025.1.1,59.848738282754496,2025-10-03 16h57.35.555990 +0530,
-50,x,84,0,21,x,1,1.2344119000481442,None,21,0,84,0,,,,,200.78119960002368,,200.76507359999232,200.78119960002368,201.7652680000174,201.7652680000174,201.7652680000174,201.7652680000174,201.7821144000045,202.76736800000072,202.76736800000072,204.01898669998627,x,1,1.2344119000481442,None,,,,,participant 02,001,2025-10-03_16h57.26.625,Motor sequence task,,2025.1.1,59.848738282754496,2025-10-03 16h57.35.555990 +0530,
150,v,85,1,21,v,1,1.327193500008434,None,21,1,85,1,,,,,204.0331030000234,,204.0193716000067,204.0331030000234,205.01678860001266,205.01678860001266,205.01678860001266,205.01678860001266,205.03535299998475,206.02107020001858,206.02107020001858,207.352914099989,v,1,1.327193500008434,None,,,,,participant 02,001,2025-10-03_16h57.26.625,Motor sequence task,,2025.1.1,59.848738282754496,2025-10-03 16h57.35.555990 +0530,
50,c,86,2,21,c,1,0.45313450001413,None,21,2,86,2,,,,,207.3709057000233,,207.35330339998472,207.3709057000233,208.35448859998723,208.35448859998723,208.35448859998723,208.35448859998723,208.37174790003337,209.35691700002644,209.35691700002644,209.82400929997675,c,1,0.45313450001413,None,,,,,participant 02,001,2025-10-03_16h57.26.625,Motor sequence task,,2025.1.1,59.848738282754496,2025-10-03 16h57.35.555990 +0530,
-150,z,87,3,21,z,1,0.29813690000446513,None,21,3,87,3,,,,,209.84080720000202,,209.82443229999626,209.84080720000202,210.82512160000624,210.82512160000624,210.82512160000624,210.82512160000624,210.84197559999302,211.82590729999356,211.82590729999356,212.12627250002697,z,1,0.29813690000446513,None,,,,,participant 02,001,2025-10-03_16h57.26.625,Motor sequence task,,2025.1.1,59.848738282754496,2025-10-03 16h57.35.555990 +0530,
-50,x,88,0,22,x,1,1.1007259999751113,None,22,0,88,0,,,,,212.14262579998467,,212.12670590000926,212.14262579998467,213.12789840000914,213.12789840000914,213.12789840000914,213.12789840000914,213.1453710999922,214.12891959998524,214.12891959998524,215.24585310003022,x,1,1.1007259999751113,None,,,,,participant 02,001,2025-10-03_16h57.26.625,Motor sequence task,,2025.1.1,59.848738282754496,2025-10-03 16h57.35.555990 +0530,
150,v,89,1,22,v,1,0.4321163999848068,None,22,1,89,1,,,,,215.2626664999989,,215.24629420001293,215.2626664999989,216.24832160002552,216.24832160002552,216.24832160002552,216.24832160002552,216.26524480001535,217.24800120003056,217.24800120003056,217.6846147000324,v,1,0.4321163999848068,None,,,,,participant 02,001,2025-10-03_16h57.26.625,Motor sequence task,,2025.1.1,59.848738282754496,2025-10-03 16h57.35.555990 +0530,
50,c,90,2,22,c,1,0.31708880001679063,None,22,2,90,2,,,,,217.69814470002893,,217.685317400028,217.69814470002893,218.68454709998332,218.68454709998332,218.68454709998332,218.68454709998332,218.7000909000053,219.6823643000098,219.6823643000098,220.00168129999656,c,1,0.31708880001679063,None,,,,,participant 02,001,2025-10-03_16h57.26.625,Motor sequence task,,2025.1.1,59.848738282754496,2025-10-03 16h57.35.555990 +0530,
-150,z,91,3,22,z,1,0.3658393999794498,None,22,3,91,3,,,,,220.0178083999781,,220.00219030003063,220.0178083999781,221.00368050002726,221.00368050002726,221.00368050002726,221.00368050002726,221.0191610000329,222.00424640002893,222.00424640002893,222.38885160000063,z,1,0.3658393999794498,None,,,,,participant 02,001,2025-10-03_16h57.26.625,Motor sequence task,,2025.1.1,59.848738282754496,2025-10-03 16h57.35.555990 +0530,
-50,x,92,0,23,x,1,0.2787272999994457,None,23,0,92,0,,,,,222.40496299997903,,222.3893979000277,222.40496299997903,223.3884286999819,223.3884286999819,223.3884286999819,223.3884286999819,223.4055245000054,224.38817190000555,224.38817190000555,224.67337269999553,x,1,0.2787272999994457,None,,,,,participant 02,001,2025-10-03_16h57.26.625,Motor sequence task,,2025.1.1,59.848738282754496,2025-10-03 16h57.35.555990 +0530,
150,v,93,1,23,v,1,0.5955153999966569,None,23,1,93,1,,,,,224.69041979999747,,224.67383450001944,224.69041979999747,225.67416070000036,225.67416070000036,225.67416070000036,225.67416070000036,225.69045500003267,226.67497500003083,226.67497500003083,227.2769699000055,v,1,0.5955153999966569,None,,,,,participant 02,001,2025-10-03_16h57.26.625,Motor sequence task,,2025.1.1,59.848738282754496,2025-10-03 16h57.35.555990 +0530,
50,c,94,2,23,c,1,0.3088489000219852,None,23,2,94,2,,,,,227.29273500002455,,227.27738939999836,227.29273500002455,228.2945867999806,228.2945867999806,228.2945867999806,228.2945867999806,228.2945867999806,229.27879369998118,229.27879369998118,229.59922480001114,c,1,0.3088489000219852,None,,,,,participant 02,001,2025-10-03_16h57.26.625,Motor sequence task,,2025.1.1,59.848738282754496,2025-10-03 16h57.35.555990 +0530,
-150,z,95,3,23,z,1,0.40743590000784025,None,23,3,95,3,,,,,229.61129209998762,,229.59964849997777,229.61129209998762,230.61348649999127,230.61348649999127,230.61348649999127,230.61348649999127,230.61348649999127,231.615267199988,231.615267199988,232.03197870001895,z,1,0.40743590000784025,None,,,,,participant 02,001,2025-10-03_16h57.26.625,Motor sequence task,,2025.1.1,59.848738282754496,2025-10-03 16h57.35.555990 +0530,
-50,x,96,0,24,x,1,0.5307594999903813,None,24,0,96,0,,,,,232.04812029999448,,232.0324156000279,232.04812029999448,233.03105729998788,233.03105729998788,233.03105729998788,233.03105729998788,233.0487883000169,234.03330329997698,234.03330329997698,234.5687528999988,x,1,0.5307594999903813,None,,,,,participant 02,001,2025-10-03_16h57.26.625,Motor sequence task,,2025.1.1,59.848738282754496,2025-10-03 16h57.35.555990 +0530,
150,v,97,1,24,v,1,0.04438999999547377,None,24,1,97,1,,,,,234.58512880001217,,234.56920209998498,234.58512880001217,235.568906600005,235.568906600005,235.568906600005,235.568906600005,235.5858885999769,236.57032320002327,236.57032320002327,236.61938920000102,v,1,0.04438999999547377,None,,,,,participant 02,001,2025-10-03_16h57.26.625,Motor sequence task,,2025.1.1,59.848738282754496,2025-10-03 16h57.35.555990 +0530,
50,c,98,2,24,c,1,0.38401810004143044,None,24,2,98,2,,,,,236.63565630000085,,236.6198463999899,236.63565630000085,237.6214723000303,237.6214723000303,237.6214723000303,237.6214723000303,237.63793199998327,238.62289920001058,238.62289920001058,239.02231959998608,c,1,0.38401810004143044,None,,,,,participant 02,001,2025-10-03_16h57.26.625,Motor sequence task,,2025.1.1,59.848738282754496,2025-10-03 16h57.35.555990 +0530,
-150,z,99,3,24,z,1,0.6109146999660879,None,24,3,99,3,,,,,239.03858460002812,,239.02282810001634,239.03858460002812,240.02463080000598,240.02463080000598,240.02463080000598,240.02463080000598,240.03981550002936,241.02402459998848,241.02402459998848,241.64347940002335,z,1,0.6109146999660879,None,,,,,participant 02,001,2025-10-03_16h57.26.625,Motor sequence task,,2025.1.1,59.848738282754496,2025-10-03 16h57.35.555990 +0530,
-50,x,0,0,0,x,1,0.2799551999778487,None,,,,,0,0,0,0,241.65646780002862,,241.6493841999909,241.65646780002862,242.64323159999913,242.64323159999913,242.64323159999913,242.64323159999913,242.6600180999958,243.6454864999978,243.6454864999978,243.92827829997987,,,,,x,1,0.2799551999778487,None,participant 02,001,2025-10-03_16h57.26.625,Motor sequence task,,2025.1.1,59.848738282754496,2025-10-03 16h57.35.555990 +0530,
50,c,1,1,0,c,1,0.5488572000176646,None,,,,,0,1,1,2,243.94481200003065,,243.92872959998203,243.94481200003065,244.92711689998396,244.92711689998396,244.92711689998396,244.92711689998396,244.96235180000076,245.93048510001972,245.93048510001972,246.48180010000942,,,,,c,1,0.5488572000176646,None,participant 02,001,2025-10-03_16h57.26.625,Motor sequence task,,2025.1.1,59.848738282754496,2025-10-03 16h57.35.555990 +0530,
150,v,2,2,0,v,1,0.33808349998435006,None,,,,,0,2,2,1,246.49859879998257,,246.48222900001565,246.49859879998257,247.48199559998466,247.48199559998466,247.48199559998466,247.48199559998466,247.49804279999807,248.4830117999809,248.4830117999809,248.8340229000314,,,,,v,1,0.33808349998435006,None,participant 02,001,2025-10-03_16h57.26.625,Motor sequence task,,2025.1.1,59.848738282754496,2025-10-03 16h57.35.555990 +0530,
50,c,3,3,1,c,1,0.5048073999932967,None,,,,,1,3,3,2,248.85012229997665,,248.83444870001404,248.85012229997665,249.85093449999113,249.85093449999113,249.85093449999113,249.85093449999113,249.85093449999113,250.83659070002614,250.83659070002614,251.35362270002952,,,,,c,1,0.5048073999932967,None,participant 02,001,2025-10-03_16h57.26.625,Motor sequence task,,2025.1.1,59.848738282754496,2025-10-03 16h57.35.555990 +0530,
-50,x,4,4,1,x,1,0.8137832999927923,None,,,,,1,4,4,0,251.36881700000959,,251.35406809998676,251.36881700000959,252.35252700001,252.35252700001,252.35252700001,252.35252700001,252.37035809998633,253.3554721000255,253.3554721000255,254.17203630000586,,,,,x,1,0.8137832999927923,None,participant 02,001,2025-10-03_16h57.26.625,Motor sequence task,,2025.1.1,59.848738282754496,2025-10-03 16h57.35.555990 +0530,
-50,x,5,5,2,x,1,0.9607391000026837,None,,,,,2,5,5,0,254.18800540000666,,254.17245630000252,254.18800540000666,255.17350590002025,255.17350590002025,255.17350590002025,255.17350590002025,255.19124880002346,256.1747807000065,256.1747807000065,257.14319020003313,,,,,x,1,0.9607391000026837,None,participant 02,001,2025-10-03_16h57.26.625,Motor sequence task,,2025.1.1,59.848738282754496,2025-10-03 16h57.35.555990 +0530,
-150,z,6,6,0,v,0,0.39036829996621236,None,,,,,0,6,6,3,257.15867750003235,,257.14371089998167,257.15867750003235,258.14231700001983,258.14231700001983,258.14231700001983,258.14231700001983,258.1582477000193,259.14403249998577,259.14403249998577,259.5457441000035,,,,,v,0,0.39036829996621236,None,participant 02,001,2025-10-03_16h57.26.625,Motor sequence task,,2025.1.1,59.848738282754496,2025-10-03 16h57.35.555990 +0530,
-50,x,7,7,3,x,1,0.4612343999906443,None,,,,,3,7,7,0,259.56187969999155,,259.5461664000177,259.56187969999155,260.5462703999947,260.5462703999947,260.5462703999947,260.5462703999947,260.56404010002734,261.549688900006,261.549688900006,262.0137216000003,,,,,x,1,0.4612343999906443,None,participant 02,001,2025-10-03_16h57.26.625,Motor sequence task,,2025.1.1,59.848738282754496,2025-10-03 16h57.35.555990 +0530,
-50,x,8,8,4,x,1,0.4197023999877274,None,,,,,4,8,8,0,262.031481300015,,262.01416540000355,262.031481300015,263.0165858999826,263.0165858999826,263.0165858999826,263.0165858999826,263.032066499989,264.0168324999977,264.0168324999977,264.4516904000193,,,,,x,1,0.4197023999877274,None,participant 02,001,2025-10-03_16h57.26.625,Motor sequence task,,2025.1.1,59.848738282754496,2025-10-03 16h57.35.555990 +0530,
150,v,9,9,1,v,1,0.41389039997011423,None,,,,,1,9,9,1,264.46765910001704,,264.45221960003255,264.46765910001704,265.4518471999909,265.4518471999909,265.4518471999909,265.4518471999909,265.4684338999796,266.4527700000326,266.4527700000326,266.8712193000247,,,,,v,1,0.41389039997011423,None,participant 02,001,2025-10-03_16h57.26.625,Motor sequence task,,2025.1.1,59.848738282754496,2025-10-03 16h57.35.555990 +0530,
50,c,10,10,2,c,1,1.1663433999638073,None,,,,,2,10,10,2,266.887273899978,,266.8716434999951,266.887273899978,267.8876954999869,267.8876954999869,267.8876954999869,267.8876954999869,267.90461830003187,268.8733429000131,268.8733429000131,270.040470500011,,,,,c,1,1.1663433999638073,None,participant 02,001,2025-10-03_16h57.26.625,Motor sequence task,,2025.1.1,59.848738282754496,2025-10-03 16h57.35.555990 +0530,
150,v,11,11,2,v,1,0.576154799957294,None,,,,,2,11,11,1,270.05611060000956,,270.04090319998795,270.05611060000956,271.04052260000026,271.04052260000026,271.04052260000026,271.04052260000026,271.05736829998204,272.04281519999495,272.04281519999495,272.62692379998043,,,,,v,1,0.576154799957294,None,participant 02,001,2025-10-03_16h57.26.625,Motor sequence task,,2025.1.1,59.848738282754496,2025-10-03 16h57.35.555990 +0530,
50,c,12,12,3,c,1,0.6397010000073351,None,,,,,3,12,12,2,272.6424545000191,,272.6273632000084,272.6424545000191,273.62739670003066,273.62739670003066,273.62739670003066,273.62739670003066,273.64436350000324,274.6275217999937,274.6275217999937,275.2808844000101,,,,,c,1,0.6397010000073351,None,participant 02,001,2025-10-03_16h57.26.625,Motor sequence task,,2025.1.1,59.848738282754496,2025-10-03 16h57.35.555990 +0530,
-50,x,13,13,5,x,1,1.0402529999846593,None,,,,,5,13,13,0,275.29386299999896,,275.28140360000543,275.29386299999896,276.28009620000375,276.28009620000375,276.28009620000375,276.28009620000375,276.2968738999916,277.281287699996,277.281287699996,278.33308620000025,,,,,x,1,1.0402529999846593,None,participant 02,001,2025-10-03_16h57.26.625,Motor sequence task,,2025.1.1,59.848738282754496,2025-10-03 16h57.35.555990 +0530,
-150,z,14,14,1,z,1,0.5992377999937162,None,,,,,1,14,14,3,278.3491052000318,,278.3336082000169,278.3491052000318,279.33315790002234,279.33315790002234,279.33315790002234,279.33315790002234,279.35021100001177,280.3345264000236,280.3345264000236,280.93611359997885,,,,,z,1,0.5992377999937162,None,participant 02,001,2025-10-03_16h57.26.625,Motor sequence task,,2025.1.1,59.848738282754496,2025-10-03 16h57.35.555990 +0530,
-50,x,15,15,6,x,1,0.9048272999934852,None,,,,,6,15,15,0,280.953212500026,,280.93654309998965,280.953212500026,281.9365957999835,281.9365957999835,281.9365957999835,281.9365957999835,281.9537572999834,282.9368840000243,282.9368840000243,283.8560304000275,,,,,x,1,0.9048272999934852,None,participant 02,001,2025-10-03_16h57.26.625,Motor sequence task,,2025.1.1,59.848738282754496,2025-10-03 16h57.35.555990 +0530,
150,v,16,16,3,v,1,0.36714690004009753,None,,,,,3,16,16,1,283.8722099000006,,283.85657050000736,283.8722099000006,284.8553505000309,284.8553505000309,284.8553505000309,284.8553505000309,284.8721554999938,285.85751619999064,285.85751619999064,286.2255103000207,,,,,v,1,0.36714690004009753,None,participant 02,001,2025-10-03_16h57.26.625,Motor sequence task,,2025.1.1,59.848738282754496,2025-10-03 16h57.35.555990 +0530,
-150,z,17,17,2,z,1,0.5530924000195228,None,,,,,2,17,17,3,286.24152189999586,,286.22597969998606,286.24152189999586,287.2250290000229,287.2250290000229,287.2250290000229,287.2250290000229,287.2417871999787,288.22668060002616,288.22668060002616,288.79448969999794,,,,,z,1,0.5530924000195228,None,participant 02,001,2025-10-03_16h57.26.625,Motor sequence task,,2025.1.1,59.848738282754496,2025-10-03 16h57.35.555990 +0530,
150,v,18,18,4,v,1,0.49708749999990687,None,,,,,4,18,18,1,288.811110700015,,288.79536440002266,288.811110700015,289.79558560001897,289.79558560001897,289.79558560001897,289.79558560001897,289.8125841000001,290.7960413999972,290.7960413999972,291.2959069000208,,,,,v,1,0.49708749999990687,None,participant 02,001,2025-10-03_16h57.26.625,Motor sequence task,,2025.1.1,59.848738282754496,2025-10-03 16h57.35.555990 +0530,
-150,z,19,19,3,z,1,0.6339830000069924,None,,,,,3,19,19,3,291.3136025000131,,291.29633769998327,291.3136025000131,292.2979003000073,292.2979003000073,292.2979003000073,292.2979003000073,292.31473530002404,293.2980064000003,293.2980064000003,293.93279240000993,,,,,z,1,0.6339830000069924,None,participant 02,001,2025-10-03_16h57.26.625,Motor sequence task,,2025.1.1,59.848738282754496,2025-10-03 16h57.35.555990 +0530,
-150,z,20,20,4,z,1,1.7451942000188865,None,,,,,4,20,20,3,293.9489543000236,,293.93325729999924,293.9489543000236,294.93426920002094,294.93426920002094,294.93426920002094,294.93426920002094,294.95178439997835,295.93437909998465,295.93437909998465,297.6877324000234,,,,,z,1,1.7451942000188865,None,participant 02,001,2025-10-03_16h57.26.625,Motor sequence task,,2025.1.1,59.848738282754496,2025-10-03 16h57.35.555990 +0530,
150,v,21,21,5,v,1,0.9669127999804914,None,,,,,5,21,21,1,297.7041257999954,,297.68824500002665,297.7041257999954,298.6885972000309,298.6885972000309,298.6885972000309,298.6885972000309,298.70572770002764,299.68932360003237,299.68932360003237,300.657703600009,,,,,v,1,0.9669127999804914,None,participant 02,001,2025-10-03_16h57.26.625,Motor sequence task,,2025.1.1,59.848738282754496,2025-10-03 16h57.35.555990 +0530,
-150,z,22,22,5,z,1,0.43003810005029663,None,,,,,5,22,22,3,300.674419899995,,300.6581702000112,300.674419899995,301.6563763000304,301.6563763000304,301.6563763000304,301.6563763000304,301.69065380003303,302.66021639999235,302.66021639999235,303.092625099991,,,,,z,1,0.43003810005029663,None,participant 02,001,2025-10-03_16h57.26.625,Motor sequence task,,2025.1.1,59.848738282754496,2025-10-03 16h57.35.555990 +0530,
-50,x,23,23,7,x,1,0.7175326999858953,None,,,,,7,23,23,0,303.1091792000225,,303.09313930000644,303.1091792000225,304.09286740003154,304.09286740003154,304.09286740003154,304.09286740003154,304.1112368000322,305.0955406000139,305.0955406000139,305.81387730001006,,,,,x,1,0.7175326999858953,None,participant 02,001,2025-10-03_16h57.26.625,Motor sequence task,,2025.1.1,59.848738282754496,2025-10-03 16h57.35.555990 +0530,
-50,x,24,24,8,x,1,0.378957100037951,None,,,,,8,24,24,0,305.83084310003323,,305.81447139999364,305.83084310003323,306.82871480000904,306.82871480000904,306.82871480000904,306.82871480000904,306.84619379998185,307.8150011000107,307.8150011000107,308.1994883000152,,,,,x,1,0.378957100037951,None,participant 02,001,2025-10-03_16h57.26.625,Motor sequence task,,2025.1.1,59.848738282754496,2025-10-03 16h57.35.555990 +0530,
50,c,25,25,4,c,1,0.5993434999836609,None,,,,,4,25,25,2,308.21223200001987,,308.2000491999788,308.21223200001987,309.2005968000158,309.2005968000158,309.2005968000158,309.2005968000158,309.21539369999664,310.2010625000112,310.2010625000112,310.8016906999983,,,,,c,1,0.5993434999836609,None,participant 02,001,2025-10-03_16h57.26.625,Motor sequence task,,2025.1.1,59.848738282754496,2025-10-03 16h57.35.555990 +0530,
-50,x,26,26,9,x,1,0.6655926000094041,None,,,,,9,26,26,0,310.8174186000251,,310.80213090003235,310.8174186000251,311.804000300006,311.804000300006,311.804000300006,311.804000300006,311.81923480000114,312.80305609997595,312.80305609997595,313.4708006000146,,,,,x,1,0.6655926000094041,None,participant 02,001,2025-10-03_16h57.26.625,Motor sequence task,,2025.1.1,59.848738282754496,2025-10-03 16h57.35.555990 +0530,
150,v,27,27,6,v,1,0.6112292999750935,None,,,,,6,27,27,1,313.48726229998283,,313.4712877999991,313.48726229998283,314.4721311000176,314.4721311000176,314.4721311000176,314.4721311000176,314.4883093999815,315.47140979999676,315.47140979999676,316.0920484000235,,,,,v,1,0.6112292999750935,None,participant 02,001,2025-10-03_16h57.26.625,Motor sequence task,,2025.1.1,59.848738282754496,2025-10-03 16h57.35.555990 +0530,
50,c,28,28,5,c,1,0.5014049999881536,None,,,,,5,28,28,2,316.1084364000126,,316.092477600032,316.1084364000126,317.09154890000354,317.09154890000354,317.09154890000354,317.09154890000354,317.10860360000515,318.09322959999554,318.09322959999554,318.61108820000663,,,,,c,1,0.5014049999881536,None,participant 02,001,2025-10-03_16h57.26.625,Motor sequence task,,2025.1.1,59.848738282754496,2025-10-03 16h57.35.555990 +0530,
50,c,29,29,6,c,1,0.5264773000380956,None,,,,,6,29,29,2,318.62438280001516,,318.61151449999306,318.62438280001516,319.62668450002093,319.62668450002093,319.62668450002093,319.62668450002093,319.62668450002093,320.6128189000301,320.6128189000301,321.14767570002005,,,,,c,1,0.5264773000380956,None,participant 02,001,2025-10-03_16h57.26.625,Motor sequence task,,2025.1.1,59.848738282754496,2025-10-03 16h57.35.555990 +0530,
-50,x,30,30,10,x,1,0.8069048000033945,None,,,,,10,30,30,0,321.1634155000211,,321.1482109000208,321.1634155000211,322.16299280000385,322.16299280000385,322.16299280000385,322.16299280000385,322.16299280000385,323.1467736000195,323.1467736000195,323.96512509998865,,,,,x,1,0.8069048000033945,None,participant 02,001,2025-10-03_16h57.26.625,Motor sequence task,,2025.1.1,59.848738282754496,2025-10-03 16h57.35.555990 +0530,
-50,x,31,31,11,x,1,0.6264854000182822,None,,,,,11,31,31,0,323.9806532000075,,323.96560070000123,323.9806532000075,324.96612479997566,324.96612479997566,324.96612479997566,324.96612479997566,324.9840320000076,325.96880420000525,325.96880420000525,326.6027608999866,,,,,x,1,0.6264854000182822,None,participant 02,001,2025-10-03_16h57.26.625,Motor sequence task,,2025.1.1,59.848738282754496,2025-10-03 16h57.35.555990 +0530,
-150,z,32,32,6,z,1,0.6399198999861255,None,,,,,6,32,32,3,326.6189830999938,,326.6032936000265,326.6189830999938,327.6216872999794,327.6216872999794,327.6216872999794,327.6216872999794,327.6216872999794,328.60397370002465,328.60397370002465,329.25453380000545,,,,,z,1,0.6399198999861255,None,participant 02,001,2025-10-03_16h57.26.625,Motor sequence task,,2025.1.1,59.848738282754496,2025-10-03 16h57.35.555990 +0530,
-150,z,33,33,7,z,1,0.5068196999491192,None,,,,,7,33,33,3,329.2698825999978,,329.2549618000048,329.2698825999978,330.25650680001127,330.25650680001127,330.25650680001127,330.25650680001127,330.2735020000255,331.2573674999876,331.2573674999876,331.7729078999837,,,,,z,1,0.5068196999491192,None,participant 02,001,2025-10-03_16h57.26.625,Motor sequence task,,2025.1.1,59.848738282754496,2025-10-03 16h57.35.555990 +0530,
-150,z,34,34,8,z,1,0.8044635999831371,None,,,,,8,34,34,3,331.79078600002686,,331.7733057999867,331.79078600002686,332.776072299981,332.776072299981,332.776072299981,332.776072299981,332.7932820999995,333.77727790002245,333.77727790002245,334.59541300003184,,,,,z,1,0.8044635999831371,None,participant 02,001,2025-10-03_16h57.26.625,Motor sequence task,,2025.1.1,59.848738282754496,2025-10-03 16h57.35.555990 +0530,
50,c,35,35,7,c,1,0.6112991999834776,None,,,,,7,35,35,2,334.60970939998515,,334.595924800029,334.60970939998515,335.5952759999782,335.5952759999782,335.5952759999782,335.5952759999782,335.6121695000329,336.5956033000257,336.5956033000257,337.2140109000029,,,,,c,1,0.6112991999834776,None,participant 02,001,2025-10-03_16h57.26.625,Motor sequence task,,2025.1.1,59.848738282754496,2025-10-03 16h57.35.555990 +0530,
150,v,36,36,7,v,1,0.5480478000245057,None,,,,,7,36,36,1,337.2302006999962,,337.2145481000189,337.2302006999962,338.23104610003065,338.23104610003065,338.23104610003065,338.23104610003065,338.23104610003065,339.21519670001,339.21519670001,339.7677507000044,,,,,v,1,0.5480478000245057,None,participant 02,001,2025-10-03_16h57.26.625,Motor sequence task,,2025.1.1,59.848738282754496,2025-10-03 16h57.35.555990 +0530,
50,c,37,37,8,c,1,0.6572119999909773,None,,,,,8,37,37,2,339.7839021999971,,339.7683734000311,339.7839021999971,340.76637050003046,340.76637050003046,340.76637050003046,340.76637050003046,340.7846158000175,341.76886620000005,341.76886620000005,342.4367694000248,,,,,c,1,0.6572119999909773,None,participant 02,001,2025-10-03_16h57.26.625,Motor sequence task,,2025.1.1,59.848738282754496,2025-10-03 16h57.35.555990 +0530,
-150,z,38,38,9,z,1,0.973837099969387,None,,,,,9,38,38,3,342.4527035999927,,342.43728670000564,342.4527035999927,343.4377259000321,343.4377259000321,343.4377259000321,343.4377259000321,343.45452949998435,344.43850550003117,344.43850550003117,345.4245718999882,,,,,z,1,0.973837099969387,None,participant 02,001,2025-10-03_16h57.26.625,Motor sequence task,,2025.1.1,59.848738282754496,2025-10-03 16h57.35.555990 +0530,
-150,z,39,39,10,z,1,0.528652900015004,None,,,,,10,39,39,3,345.4376507999841,,345.4250903999782,345.4376507999841,346.42499249998946,346.42499249998946,346.42499249998946,346.42499249998946,346.44049409998115,347.4248099999968,347.4248099999968,347.960458800022,,,,,z,1,0.528652900015004,None,participant 02,001,2025-10-03_16h57.26.625,Motor sequence task,,2025.1.1,59.848738282754496,2025-10-03 16h57.35.555990 +0530,
-150,z,40,40,11,z,1,0.44980910001322627,None,,,,,11,40,40,3,347.97344370000064,,347.96097439998994,347.97344370000064,348.97588480002014,348.97588480002014,348.97588480002014,348.97588480002014,348.97588480002014,349.9612146000145,349.9612146000145,350.4121639999794,,,,,z,1,0.44980910001322627,None,participant 02,001,2025-10-03_16h57.26.625,Motor sequence task,,2025.1.1,59.848738282754496,2025-10-03 16h57.35.555990 +0530,
150,v,41,41,8,v,1,2.438090400013607,None,,,,,8,41,41,1,350.4281648999895,,350.4126780999941,350.4281648999895,351.4130695000058,351.4130695000058,351.4130695000058,351.4130695000058,351.430028999981,352.4145283999969,352.4145283999969,354.86572190001607,,,,,v,1,2.438090400013607,None,participant 02,001,2025-10-03_16h57.26.625,Motor sequence task,,2025.1.1,59.848738282754496,2025-10-03 16h57.35.555990 +0530,
50,c,42,42,9,c,1,0.7690263999975286,None,,,,,9,42,42,2,354.8832039000117,,354.8661988999811,354.8832039000117,355.86709499999415,355.86709499999415,355.86709499999415,355.86709499999415,355.88395360001596,356.8693771000253,356.8693771000253,357.65356890001567,,,,,c,1,0.7690263999975286,None,participant 02,001,2025-10-03_16h57.26.625,Motor sequence task,,2025.1.1,59.848738282754496,2025-10-03 16h57.35.555990 +0530,
50,c,43,43,10,v,0,0.6187991000479087,None,,,,,10,43,43,2,357.6696336999885,,357.65409030002775,357.6696336999885,358.6529872000101,358.6529872000101,358.6529872000101,358.6529872000101,358.6709878999973,359.65562169998884,359.65562169998884,360.28760320000583,,,,,v,0,0.6187991000479087,None,participant 02,001,2025-10-03_16h57.26.625,Motor sequence task,,2025.1.1,59.848738282754496,2025-10-03 16h57.35.555990 +0530,
-50,x,44,44,12,x,1,0.9996845999849029,None,,,,,12,44,44,0,360.30520719999913,,360.28802259999793,360.30520719999913,361.2910256999894,361.2910256999894,361.2910256999894,361.2910256999894,361.3055182999815,362.29141419997904,362.29141419997904,363.29192930000136,,,,,x,1,0.9996845999849029,None,participant 02,001,2025-10-03_16h57.26.625,Motor sequence task,,2025.1.1,59.848738282754496,2025-10-03 16h57.35.555990 +0530,
-50,x,45,45,13,x,1,0.6137101000058465,None,,,,,13,45,45,0,363.3080445000087,,363.29249130003154,363.3080445000087,364.2934538000263,364.2934538000263,364.2934538000263,364.2934538000263,364.3102491000318,365.29476910002995,365.29476910002995,365.91183210001327,,,,,x,1,0.6137101000058465,None,participant 02,001,2025-10-03_16h57.26.625,Motor sequence task,,2025.1.1,59.848738282754496,2025-10-03 16h57.35.555990 +0530,
50,c,46,46,11,c,1,0.5627876999787986,None,,,,,11,46,46,2,365.9280629000277,,365.9122578999959,365.9280629000277,366.91301040002145,366.91301040002145,366.91301040002145,366.91301040002145,366.92897950002225,367.91478009999264,367.91478009999264,368.48119000002043,,,,,c,1,0.5627876999787986,None,participant 02,001,2025-10-03_16h57.26.625,Motor sequence task,,2025.1.1,59.848738282754496,2025-10-03 16h57.35.555990 +0530,
-50,x,47,47,14,x,1,0.39433709997683764,None,,,,,14,47,47,0,368.4979917000164,,368.48162019997835,368.4979917000164,369.4820026999805,369.4820026999805,369.4820026999805,369.4820026999805,369.4989397000172,370.4844649999868,370.4844649999868,370.8858479000046,,,,,x,1,0.39433709997683764,None,participant 02,001,2025-10-03_16h57.26.625,Motor sequence task,,2025.1.1,59.848738282754496,2025-10-03 16h57.35.555990 +0530,
150,v,48,48,9,v,1,0.8450471000396647,None,,,,,9,48,48,1,370.90044739999576,,370.8863690000144,370.90044739999576,371.88595820002956,371.88595820002956,371.88595820002956,371.88595820002956,371.90321040002163,372.88608600001317,372.88608600001317,373.73786460002884,,,,,v,1,0.8450471000396647,None,participant 02,001,2025-10-03_16h57.26.625,Motor sequence task,,2025.1.1,59.848738282754496,2025-10-03 16h57.35.555990 +0530,
-150,z,49,49,12,z,1,0.6884648000122979,None,,,,,12,49,49,3,373.75460699998075,,373.73856750002597,373.75460699998075,374.7385626999894,374.7385626999894,374.7385626999894,374.7385626999894,374.7555245999829,375.739721800026,375.739721800026,376.44085349998204,,,,,z,1,0.6884648000122979,None,participant 02,001,2025-10-03_16h57.26.625,Motor sequence task,,2025.1.1,59.848738282754496,2025-10-03 16h57.35.555990 +0530,
50,c,50,50,12,c,1,0.6880212999531068,None,,,,,12,50,50,2,376.4561745999963,,376.44135259999894,376.4561745999963,377.4415827000048,377.4415827000048,377.4415827000048,377.4415827000048,377.4593827999779,378.4426376000047,378.4426376000047,379.14445630001137,,,,,c,1,0.6880212999531068,None,participant 02,001,2025-10-03_16h57.26.625,Motor sequence task,,2025.1.1,59.848738282754496,2025-10-03 16h57.35.555990 +0530,
50,c,51,51,13,c,1,0.7741421000100672,None,,,,,13,51,51,2,379.16095789999235,,379.14487650000956,379.16095789999235,380.14368899998954,380.14368899998954,380.14368899998954,380.14368899998954,380.16094879998127,381.14645290002227,381.14645290002227,381.93111399997724,,,,,c,1,0.7741421000100672,None,participant 02,001,2025-10-03_16h57.26.625,Motor sequence task,,2025.1.1,59.848738282754496,2025-10-03 16h57.35.555990 +0530,
150,v,52,52,10,v,1,0.7378645000280812,None,,,,,10,52,52,1,381.9469340000069,,381.93156549998093,381.9469340000069,382.94817079999484,382.94817079999484,382.94817079999484,382.94817079999484,382.94817079999484,383.9464455000125,383.9464455000125,384.700715199986,,,,,v,1,0.7378645000280812,None,participant 02,001,2025-10-03_16h57.26.625,Motor sequence task,,2025.1.1,59.848738282754496,2025-10-03 16h57.35.555990 +0530,
-150,z,53,53,13,z,1,0.7482856000424363,None,,,,,13,53,53,3,384.7141289000283,,384.7011368999956,384.7141289000283,385.71791880001547,385.71791880001547,385.71791880001547,385.71791880001547,385.71791880001547,386.71752140001627,386.71752140001627,387.4686967000016,,,,,z,1,0.7482856000424363,None,participant 02,001,2025-10-03_16h57.26.625,Motor sequence task,,2025.1.1,59.848738282754496,2025-10-03 16h57.35.555990 +0530,
-150,z,54,54,14,z,1,0.5659078999888152,None,,,,,14,54,54,3,387.48401700000977,,387.4691285000299,387.48401700000977,388.46782570000505,388.46782570000505,388.46782570000505,388.46782570000505,388.48632650001673,389.4692909999867,389.4692909999867,390.03859539999394,,,,,z,1,0.5659078999888152,None,participant 02,001,2025-10-03_16h57.26.625,Motor sequence task,,2025.1.1,59.848738282754496,2025-10-03 16h57.35.555990 +0530,
-50,x,55,55,15,x,1,0.6714000999927521,None,,,,,15,55,55,0,390.05395730002783,,390.0390244000009,390.05395730002783,391.03898110002046,391.03898110002046,391.03898110002046,391.03898110002046,391.05588010000065,392.04072129999986,392.04072129999986,392.7242343000253,,,,,x,1,0.6714000999927521,None,participant 02,001,2025-10-03_16h57.26.625,Motor sequence task,,2025.1.1,59.848738282754496,2025-10-03 16h57.35.555990 +0530,
-150,z,56,56,15,z,1,0.6076942999497987,None,,,,,15,56,56,3,392.7417967999936,,392.72467939998023,392.7417967999936,393.72495830000844,393.72495830000844,393.72495830000844,393.72495830000844,393.7423940000008,394.7273570999969,394.7273570999969,395.3439778999891,,,,,z,1,0.6076942999497987,None,participant 02,001,2025-10-03_16h57.26.625,Motor sequence task,,2025.1.1,59.848738282754496,2025-10-03 16h57.35.555990 +0530,
-50,x,57,57,16,x,1,0.3153084000223316,None,,,,,16,57,57,0,395.36180559999775,,395.34442799998214,395.36180559999775,396.34496020001825,396.34496020001825,396.34496020001825,396.34496020001825,396.3611319999909,397.3460473000305,397.3460473000305,397.66341919999104,,,,,x,1,0.3153084000223316,None,participant 02,001,2025-10-03_16h57.26.625,Motor sequence task,,2025.1.1,59.848738282754496,2025-10-03 16h57.35.555990 +0530,
150,v,58,58,11,v,1,0.7641408999916166,None,,,,,11,58,58,1,397.67852800001856,,397.66386470000725,397.67852800001856,398.66573760000756,398.66573760000756,398.66573760000756,398.66573760000756,398.67902739997953,399.66664569999557,399.66664569999557,400.4326031000237,,,,,v,1,0.7641408999916166,None,participant 02,001,2025-10-03_16h57.26.625,Motor sequence task,,2025.1.1,59.848738282754496,2025-10-03 16h57.35.555990 +0530,
-150,z,59,59,16,z,1,0.6004386999993585,None,,,,,16,59,59,3,400.44799539999804,,400.43301039998187,400.44799539999804,401.43369809997967,401.43369809997967,401.43369809997967,401.43369809997967,401.4500593999983,402.4356742000091,402.4356742000091,403.0513227999909,,,,,z,1,0.6004386999993585,None,participant 02,001,2025-10-03_16h57.26.625,Motor sequence task,,2025.1.1,59.848738282754496,2025-10-03 16h57.35.555990 +0530,
-50,x,60,60,17,x,1,0.4047924000187777,None,,,,,17,60,60,0,403.06924689997686,,403.05171229998814,403.06924689997686,404.05354850000003,404.05354850000003,404.05354850000003,404.05354850000003,404.0706067000283,405.0545310000307,405.0545310000307,405.4736521000159,,,,,x,1,0.4047924000187777,None,participant 02,001,2025-10-03_16h57.26.625,Motor sequence task,,2025.1.1,59.848738282754496,2025-10-03 16h57.35.555990 +0530,
50,c,61,61,14,c,1,0.3402040000073612,None,,,,,14,61,61,2,405.48763789999066,,405.4740753999795,405.48763789999066,406.4739457999822,406.4739457999822,406.4739457999822,406.4739457999822,406.48937680001836,407.49103029997787,407.49103029997787,407.839378500008,,,,,c,1,0.3402040000073612,None,participant 02,001,2025-10-03_16h57.26.625,Motor sequence task,,2025.1.1,59.848738282754496,2025-10-03 16h57.35.555990 +0530,
150,v,62,62,12,v,1,0.5624830999877304,None,,,,,12,62,62,1,407.856346799992,,407.83988630003296,407.856346799992,408.84061100002145,408.84061100002145,408.84061100002145,408.84061100002145,408.8591444999911,409.843839499983,409.843839499983,410.41103870002553,,,,,v,1,0.5624830999877304,None,participant 02,001,2025-10-03_16h57.26.625,Motor sequence task,,2025.1.1,59.848738282754496,2025-10-03 16h57.35.555990 +0530,
-150,z,63,63,17,z,1,0.6301992000080645,None,,,,,17,63,63,3,410.42700389999663,,410.4115699999966,410.42700389999663,411.41172380000353,411.41172380000353,411.41172380000353,411.41172380000353,411.4287033000146,412.4128105000127,412.4128105000127,413.04794940003194,,,,,z,1,0.6301992000080645,None,participant 02,001,2025-10-03_16h57.26.625,Motor sequence task,,2025.1.1,59.848738282754496,2025-10-03 16h57.35.555990 +0530,
-150,z,64,64,18,z,1,0.5137483000289649,None,,,,,18,64,64,3,413.06141939997906,,413.0483706999803,413.06141939997906,414.04779849998886,414.04779849998886,414.04779849998886,414.04779849998886,414.0639042999828,415.04921299999114,415.04921299999114,415.56872480001766,,,,,z,1,0.5137483000289649,None,participant 02,001,2025-10-03_16h57.26.625,Motor sequence task,,2025.1.1,59.848738282754496,2025-10-03 16h57.35.555990 +0530,
-150,z,65,65,19,z,1,0.6345223000389524,None,,,,,19,65,65,3,415.5814825000125,,415.56914680002956,415.5814825000125,416.567915200023,416.567915200023,416.567915200023,416.567915200023,416.584683699999,417.5842295999755,417.5842295999755,418.2205436999793,,,,,z,1,0.6345223000389524,None,participant 02,001,2025-10-03_16h57.26.625,Motor sequence task,,2025.1.1,59.848738282754496,2025-10-03 16h57.35.555990 +0530,
50,c,66,66,15,x,0,0.8549411999993026,None,,,,,15,66,66,2,418.2337014999939,,418.22096220002277,418.2337014999939,419.2367293999996,419.2367293999996,419.2367293999996,419.2367293999996,419.2367293999996,420.2208588999929,420.2208588999929,421.0900186999934,,,,,x,0,0.8549411999993026,None,participant 02,001,2025-10-03_16h57.26.625,Motor sequence task,,2025.1.1,59.848738282754496,2025-10-03 16h57.35.555990 +0530,
150,v,67,67,13,v,1,1.2205877000233158,None,,,,,13,67,67,1,421.10615970002254,,421.0904545999947,421.10615970002254,422.08970599999884,422.08970599999884,422.08970599999884,422.08970599999884,422.1092301000026,423.0900916000246,423.0900916000246,424.32726180000464,,,,,v,1,1.2205877000233158,None,participant 02,001,2025-10-03_16h57.26.625,Motor sequence task,,2025.1.1,59.848738282754496,2025-10-03 16h57.35.555990 +0530,
-150,z,68,68,20,z,1,0.7081467999960296,None,,,,,20,68,68,3,424.34041639999487,,424.3276890999987,424.34041639999487,425.34286319999956,425.34286319999956,425.34286319999956,425.34286319999956,425.34286319999956,426.3283446999849,426.3283446999849,427.04731880000327,,,,,z,1,0.7081467999960296,None,participant 02,001,2025-10-03_16h57.26.625,Motor sequence task,,2025.1.1,59.848738282754496,2025-10-03 16h57.35.555990 +0530,
-150,z,69,69,21,z,1,0.9287888999679126,None,,,,,21,69,69,3,427.0617493999889,,427.0478328000172,427.0617493999889,428.0472649000003,428.0472649000003,428.0472649000003,428.0472649000003,428.0638937000185,429.0480733999866,429.0480733999866,429.98255940002855,,,,,z,1,0.9287888999679126,None,participant 02,001,2025-10-03_16h57.26.625,Motor sequence task,,2025.1.1,59.848738282754496,2025-10-03 16h57.35.555990 +0530,
150,v,70,70,14,v,1,0.7270668999990448,None,,,,,14,70,70,1,429.99883220001357,,429.98310529999435,429.99883220001357,430.9829297999968,430.9829297999968,430.9829297999968,430.9829297999968,430.99993960000575,431.9838839999866,431.9838839999866,432.7187505000038,,,,,v,1,0.7270668999990448,None,participant 02,001,2025-10-03_16h57.26.625,Motor sequence task,,2025.1.1,59.848738282754496,2025-10-03 16h57.35.555990 +0530,
50,c,71,71,16,c,1,0.5106038000085391,None,,,,,16,71,71,2,432.7349703999935,,432.71918760001427,432.7349703999935,433.7175934999832,433.7175934999832,433.7175934999832,433.7175934999832,433.7364886000287,434.721620300028,434.721620300028,435.23745760001475,,,,,c,1,0.5106038000085391,None,participant 02,001,2025-10-03_16h57.26.625,Motor sequence task,,2025.1.1,59.848738282754496,2025-10-03 16h57.35.555990 +0530,
150,v,72,72,15,v,1,1.0688410999719054,None,,,,,15,72,72,1,435.2539199999883,,435.23789980000583,435.2539199999883,436.2398531999788,436.2398531999788,436.2398531999788,436.2398531999788,436.2542104999884,437.24069940001937,437.24069940001937,438.3270896000322,,,,,v,1,1.0688410999719054,None,participant 02,001,2025-10-03_16h57.26.625,Motor sequence task,,2025.1.1,59.848738282754496,2025-10-03 16h57.35.555990 +0530,
-50,x,73,73,18,x,1,0.3554994000005536,None,,,,,18,73,73,0,438.3399283000035,,438.3275242000236,438.3399283000035,439.3426444000215,439.3426444000215,439.3426444000215,439.3426444000215,439.3426444000215,440.3272059999872,440.3272059999872,440.6934530999861,,,,,x,1,0.3554994000005536,None,participant 02,001,2025-10-03_16h57.26.625,Motor sequence task,,2025.1.1,59.848738282754496,2025-10-03 16h57.35.555990 +0530,
150,v,74,74,16,v,1,0.9789250000030734,None,,,,,16,74,74,1,440.7092731000157,,440.6938556000241,440.7092731000157,441.69530100002885,441.69530100002885,441.69530100002885,441.69530100002885,441.712026800029,442.6956860999926,442.6956860999926,443.680418199976,,,,,v,1,0.9789250000030734,None,participant 02,001,2025-10-03_16h57.26.625,Motor sequence task,,2025.1.1,59.848738282754496,2025-10-03 16h57.35.555990 +0530,
150,v,75,75,17,v,1,0.5658875000081025,None,,,,,17,75,75,1,443.6973156000022,,443.6808618999785,443.6973156000022,444.6810329,444.6810329,444.6810329,444.6810329,444.6974455000018,445.68436130002374,445.68436130002374,446.26659920002567,,,,,v,1,0.5658875000081025,None,participant 02,001,2025-10-03_16h57.26.625,Motor sequence task,,2025.1.1,59.848738282754496,2025-10-03 16h57.35.555990 +0530,
150,v,76,76,18,v,1,0.8411755000124685,None,,,,,18,76,76,1,446.28387360001216,,446.2670252000098,446.28387360001216,447.2679875000031,447.2679875000031,447.2679875000031,447.2679875000031,447.2846894999966,448.26906050002435,448.26906050002435,449.12094280001475,,,,,v,1,0.8411755000124685,None,participant 02,001,2025-10-03_16h57.26.625,Motor sequence task,,2025.1.1,59.848738282754496,2025-10-03 16h57.35.555990 +0530,
50,c,77,77,17,c,1,0.4476677000056952,None,,,,,17,77,77,2,449.1370548999985,,449.12145789997885,449.1370548999985,450.1189238000079,450.1189238000079,450.1189238000079,450.1189238000079,450.15402299998095,451.1224682999891,451.1224682999891,451.57250690000365,,,,,c,1,0.4476677000056952,None,participant 02,001,2025-10-03_16h57.26.625,Motor sequence task,,2025.1.1,59.848738282754496,2025-10-03 16h57.35.555990 +0530,
-150,z,78,78,22,z,1,0.6314556000288576,None,,,,,22,78,78,3,451.5896451000008,,451.57293169997865,451.5896451000008,452.57347629999276,452.57347629999276,452.57347629999276,452.57347629999276,452.59023229999,453.5740997000248,453.5740997000248,454.20759060001,,,,,z,1,0.6314556000288576,None,participant 02,001,2025-10-03_16h57.26.625,Motor sequence task,,2025.1.1,59.848738282754496,2025-10-03 16h57.35.555990 +0530,
150,v,79,79,19,v,1,0.8142463000258431,None,,,,,19,79,79,1,454.2256967999856,,454.20814030000474,454.2256967999856,455.21032880002167,455.21032880002167,455.21032880002167,455.21032880002167,455.2280905999942,456.21189769997727,456.21189769997727,457.02780650003115,,,,,v,1,0.8142463000258431,None,participant 02,001,2025-10-03_16h57.26.625,Motor sequence task,,2025.1.1,59.848738282754496,2025-10-03 16h57.35.555990 +0530,
50,c,80,80,18,c,1,0.37342090002493933,None,,,,,18,80,80,2,457.04574450000655,,457.0281950000208,457.04574450000655,458.0311926000286,458.0311926000286,458.0311926000286,458.0311926000286,458.04603319999296,459.0311990000191,459.0311990000191,459.4148193000001,,,,,c,1,0.37342090002493933,None,participant 02,001,2025-10-03_16h57.26.625,Motor sequence task,,2025.1.1,59.848738282754496,2025-10-03 16h57.35.555990 +0530,
150,v,81,81,20,v,1,1.0422581000020728,None,,,,,20,81,81,1,459.43057740002405,,459.4153414000175,459.43057740002405,460.4172979000141,460.4172979000141,460.4172979000141,460.4172979000141,460.4301590999821,461.41571929998463,461.41571929998463,462.47023779997835,,,,,v,1,1.0422581000020728,None,participant 02,001,2025-10-03_16h57.26.625,Motor sequence task,,2025.1.1,59.848738282754496,2025-10-03 16h57.35.555990 +0530,
150,v,82,82,21,v,1,0.5194558000075631,None,,,,,21,82,82,1,462.48375990003115,,462.47067300003255,462.48375990003115,463.4849973000237,463.4849973000237,463.4849973000237,463.4849973000237,463.4849973000237,464.4705093000084,464.4705093000084,465.00436329998774,,,,,v,1,0.5194558000075631,None,participant 02,001,2025-10-03_16h57.26.625,Motor sequence task,,2025.1.1,59.848738282754496,2025-10-03 16h57.35.555990 +0530,
50,c,83,83,19,c,1,0.5714036999852397,None,,,,,19,83,83,2,465.01989509997657,,465.00487629999407,465.01989509997657,466.00565300002927,466.00565300002927,466.00565300002927,466.00565300002927,466.02263640001183,467.00571130000753,467.00571130000753,467.5894650000264,,,,,c,1,0.5714036999852397,None,participant 02,001,2025-10-03_16h57.26.625,Motor sequence task,,2025.1.1,59.848738282754496,2025-10-03 16h57.35.555990 +0530,
50,c,84,84,20,c,1,0.5462525999755599,None,,,,,20,84,84,2,467.60512969997944,,467.58986800001003,467.60512969997944,468.59072769997874,468.59072769997874,468.59072769997874,468.59072769997874,468.6074187000049,469.59280839998974,469.59280839998974,470.1423235000111,,,,,c,1,0.5462525999755599,None,participant 02,001,2025-10-03_16h57.26.625,Motor sequence task,,2025.1.1,59.848738282754496,2025-10-03 16h57.35.555990 +0530,
-50,x,85,85,19,x,1,0.4881569999852218,None,,,,,19,85,85,0,470.15946900000563,,470.14283470000373,470.15946900000563,471.14358550001634,471.14358550001634,471.14358550001634,471.14358550001634,471.1605970999808,472.14550779998535,472.14550779998535,472.64498029998504,,,,,x,1,0.4881569999852218,None,participant 02,001,2025-10-03_16h57.26.625,Motor sequence task,,2025.1.1,59.848738282754496,2025-10-03 16h57.35.555990 +0530,
-50,x,86,86,20,x,1,0.4507461000466719,None,,,,,20,86,86,0,472.6631190000335,,472.6455321999965,472.6631190000335,473.6453594000195,473.6453594000195,473.6453594000195,473.6453594000195,473.68065140000544,474.64817729999777,474.64817729999777,475.115633599984,,,,,x,1,0.4507461000466719,None,participant 02,001,2025-10-03_16h57.26.625,Motor sequence task,,2025.1.1,59.848738282754496,2025-10-03 16h57.35.555990 +0530,
50,c,87,87,21,c,1,0.629691299982369,None,,,,,21,87,87,2,475.1322633000091,,475.1161548999953,475.1322633000091,476.1151695000008,476.1151695000008,476.1151695000008,476.1151695000008,476.1321422000183,477.11696690000826,477.11696690000826,477.7523355000303,,,,,c,1,0.629691299982369,None,participant 02,001,2025-10-03_16h57.26.625,Motor sequence task,,2025.1.1,59.848738282754496,2025-10-03 16h57.35.555990 +0530,
50,c,88,88,22,c,1,0.7857716999715194,None,,,,,22,88,88,2,477.76913969998714,,477.7528520000051,477.76913969998714,478.75232560001314,478.75232560001314,478.75232560001314,478.75232560001314,478.7692189000081,479.75434149999637,479.75434149999637,480.55353350000223,,,,,c,1,0.7857716999715194,None,participant 02,001,2025-10-03_16h57.26.625,Motor sequence task,,2025.1.1,59.848738282754496,2025-10-03 16h57.35.555990 +0530,
150,v,89,89,22,v,1,0.7196064000017941,None,,,,,22,89,89,1,480.571535199997,,480.5541846000124,480.571535199997,481.55396599997766,481.55396599997766,481.55396599997766,481.55396599997766,481.57046740001533,482.55658069998026,482.55658069998026,483.2906692000106,,,,,v,1,0.7196064000017941,None,participant 02,001,2025-10-03_16h57.26.625,Motor sequence task,,2025.1.1,59.848738282754496,2025-10-03 16h57.35.555990 +0530,
-150,z,90,90,23,z,1,1.2195140999974683,None,,,,,23,90,90,3,483.3074965000269,,483.29105559998425,483.3074965000269,484.29153240000596,484.29153240000596,484.29153240000596,484.29153240000596,484.30856019997736,485.29366429999936,485.29366429999936,486.52605639997637,,,,,z,1,1.2195140999974683,None,participant 02,001,2025-10-03_16h57.26.625,Motor sequence task,,2025.1.1,59.848738282754496,2025-10-03 16h57.35.555990 +0530,
-150,z,91,91,24,z,1,0.632663800031878,None,,,,,24,91,91,3,486.5438828000333,,486.5265400999924,486.5438828000333,487.5291962000192,487.5291962000192,487.5291962000192,487.5291962000192,487.54611470003147,488.52848440001253,488.52848440001253,489.1638115000096,,,,,z,1,0.632663800031878,None,participant 02,001,2025-10-03_16h57.26.625,Motor sequence task,,2025.1.1,59.848738282754496,2025-10-03 16h57.35.555990 +0530,
50,c,92,92,23,c,1,0.5021049999631941,None,,,,,23,92,92,2,489.1790287999902,,489.16424399998505,489.1790287999902,490.1649054000154,490.1649054000154,490.1649054000154,490.1649054000154,490.18148040003143,491.1669038999826,491.1669038999826,491.68484120001085,,,,,c,1,0.5021049999631941,None,participant 02,001,2025-10-03_16h57.26.625,Motor sequence task,,2025.1.1,59.848738282754496,2025-10-03 16h57.35.555990 +0530,
-50,x,93,93,21,x,1,1.2683644000208005,None,,,,,21,93,93,0,491.6984220999875,,491.6852736999863,491.6984220999875,492.6848338000127,492.6848338000127,492.6848338000127,492.6848338000127,492.7011112999753,493.7019408000051,493.7019408000051,494.9873458999791,,,,,x,1,1.2683644000208005,None,participant 02,001,2025-10-03_16h57.26.625,Motor sequence task,,2025.1.1,59.848738282754496,2025-10-03 16h57.35.555990 +0530,
150,v,94,94,23,v,1,0.8832076000398956,None,,,,,23,94,94,1,495.003699199995,,494.987905099988,495.003699199995,495.98674560000654,495.98674560000654,495.98674560000654,495.98674560000654,496.0057577000116,496.98947259999113,496.98947259999113,497.87381830002414,,,,,v,1,0.8832076000398956,None,participant 02,001,2025-10-03_16h57.26.625,Motor sequence task,,2025.1.1,59.848738282754496,2025-10-03 16h57.35.555990 +0530,
-50,x,95,95,22,x,1,0.8261871000286192,None,,,,,22,95,95,0,497.88994339999044,,497.8743594000116,497.88994339999044,498.87519520003116,498.87519520003116,498.87519520003116,498.87519520003116,498.89162429998396,499.8740841000108,499.8740841000108,500.71168509998824,,,,,x,1,0.8261871000286192,None,participant 02,001,2025-10-03_16h57.26.625,Motor sequence task,,2025.1.1,59.848738282754496,2025-10-03 16h57.35.555990 +0530,
-50,x,96,96,23,x,1,0.6832877000560984,None,,,,,23,96,96,0,500.7255335000227,,500.7121125999838,500.7255335000227,501.7114977000165,501.7114977000165,501.7114977000165,501.7114977000165,501.7290076999925,502.71253479999723,502.71253479999723,503.3966018999927,,,,,x,1,0.6832877000560984,None,participant 02,001,2025-10-03_16h57.26.625,Motor sequence task,,2025.1.1,59.848738282754496,2025-10-03 16h57.35.555990 +0530,
50,c,97,97,24,c,1,0.532789800025057,None,,,,,24,97,97,2,503.41263779997826,,503.3971657999791,503.41263779997826,504.4129655000288,504.4129655000288,504.4129655000288,504.4129655000288,504.4129655000288,505.39878869999666,505.39878869999666,505.93237739999313,,,,,c,1,0.532789800025057,None,participant 02,001,2025-10-03_16h57.26.625,Motor sequence task,,2025.1.1,59.848738282754496,2025-10-03 16h57.35.555990 +0530,
150,v,98,98,24,v,1,0.8328535999753512,None,,,,,24,98,98,1,505.9494268000126,,505.93283040000824,505.9494268000126,506.9316961999866,506.9316961999866,506.9316961999866,506.9316961999866,506.9665961000137,507.9373036000179,507.9373036000179,508.7857107000309,,,,,v,1,0.8328535999753512,None,participant 02,001,2025-10-03_16h57.26.625,Motor sequence task,,2025.1.1,59.848738282754496,2025-10-03 16h57.35.555990 +0530,
-50,x,99,99,24,x,1,1.28815629996825,None,,,,,24,99,99,0,508.80140699999174,,508.7862039000029,508.80140699999174,509.78585859999293,509.78585859999293,509.78585859999293,509.78585859999293,509.80303020001156,510.78793019999284,510.78793019999284,512.0897422999842,,,,,x,1,1.28815629996825,None,participant 02,001,2025-10-03_16h57.26.625,Motor sequence task,,2025.1.1,59.848738282754496,2025-10-03 16h57.35.555990 +0530,
