prime_word,prime_gender,target_image,target_gender,thisN,thisTrialN,thisRepN,key_resp.keys,key_resp.rt,key_resp.duration,trials.thisRepN,trials.thisTrialN,trials.thisN,trials.thisIndex,thisRow.t,notes,Instructions.started,text_2.started,key_resp_2.started,Instructions.stopped,key_resp_2.keys,key_resp_2.rt,key_resp_2.duration,trial.started,fixation.started,prime.started,fixation.stopped,prime.stopped,target_picture.started,key_resp.started,trial.stopped,trials.key_resp.keys,trials.key_resp.rt,trials.key_resp.duration,Thankyou.started,text.started,participant,session,date,expName,expVersion,psychopyVersion,frameRate,expStart,
,,,,,,,,,,,,,,,,0.003463700006250292,0.009243500011507422,0.009243500011507422,2.415398399985861,space,2.384034100046847,None,,,,,,,,,,,,,,Subject_03,001,2025-11-23_16h21.20.695,Semantic priming with gender association,,2025.1.1,59.63889838395441,2025-11-23 16h21.32.335676 +0530,
Mechanic,masculine,f1.jpg,female,0,0,0,f,1.2469921999727376,None,0,0,0,1,2.4418830000213347,,,,,,,,,2.436704399995506,2.4418830000213347,2.9265570000279695,2.9446261000121012,3.9283603000221774,3.9283603000221774,3.9283603000221774,5.179753599979449,f,1.2469921999727376,None,,,Subject_03,001,2025-11-23_16h21.20.695,Semantic priming with gender association,,2025.1.1,59.63889838395441,2025-11-23 16h21.32.335676 +0530,
Nanny,feminine,f9.jpg,female,1,1,0,m,0.9587190999882296,None,0,1,1,37,5.194206700020004,,,,,,,,,5.189240799983963,5.194206700020004,5.6795112999971025,5.696187500027008,6.680461400013883,6.680461400013883,6.680461400013883,7.649045100028161,m,0.9587190999882296,None,,,Subject_03,001,2025-11-23_16h21.20.695,Semantic priming with gender association,,2025.1.1,59.63889838395441,2025-11-23 16h21.32.335676 +0530,
Student,neutral,m2.jpg,male,2,2,0,m,0.9884979999624193,None,0,2,2,42,7.6688398999976926,,,,,,,,,7.66229690000182,7.6688398999976926,8.149815400014631,8.18271810002625,9.150250100006815,9.150250100006815,9.150250100006815,10.1538308999734,m,0.9884979999624193,None,,,Subject_03,001,2025-11-23_16h21.20.695,Semantic priming with gender association,,2025.1.1,59.63889838395441,2025-11-23 16h21.32.335676 +0530,
Blacksmith,masculine,f9.jpg,female,3,3,0,f,0.6773568000062369,None,0,3,3,17,10.168179099971894,,,,,,,,,10.164101900008973,10.168179099971894,10.668238200014457,10.668238200014457,11.670828600006644,11.65330319997156,11.65330319997156,12.337644900020678,f,0.6773568000062369,None,,,Subject_03,001,2025-11-23_16h21.20.695,Semantic priming with gender association,,2025.1.1,59.63889838395441,2025-11-23 16h21.32.335676 +0530,
Pilot,masculine,f8.jpeg,female,4,4,0,f,0.8456912999972701,None,0,4,4,15,12.353311499988195,,,,,,,,,12.345666599983815,12.353311499988195,12.837716099980753,12.85424299997976,13.839085699990392,13.839085699990392,13.839085699990392,14.690637800027616,f,0.8456912999972701,None,,,Subject_03,001,2025-11-23_16h21.20.695,Semantic priming with gender association,,2025.1.1,59.63889838395441,2025-11-23 16h21.32.335676 +0530,
Engineer,masculine,f3.jpg,female,5,5,0,f,0.11756639997474849,None,0,5,5,5,14.733903700020164,,,,,,,,,14.724718999990728,14.733903700020164,15.189896999974735,15.241723600018304,16.191084399993997,16.191084399993997,16.191084399993997,16.326203599979635,f,0.11756639997474849,None,,,Subject_03,001,2025-11-23_16h21.20.695,Semantic priming with gender association,,2025.1.1,59.63889838395441,2025-11-23 16h21.32.335676 +0530,
Teacher,feminine,m7.jpg,male,6,6,0,m,0.6316413999884389,None,0,6,6,32,16.342213800002355,,,,,,,,,16.33782670000801,16.342213800002355,16.825383600022178,16.842648299993016,17.8265640999889,17.8265640999889,17.8265640999889,18.4605890000239,m,0.6316413999884389,None,,,Subject_03,001,2025-11-23_16h21.20.695,Semantic priming with gender association,,2025.1.1,59.63889838395441,2025-11-23 16h21.32.335676 +0530,
Mechanic,masculine,m1.jpg,male,7,7,0,m,0.8081703999778256,None,0,7,7,0,18.47691309999209,,,,,,,,,18.471644999983255,18.47691309999209,18.961370099976193,18.977231599972583,19.96233690000372,19.96233690000372,19.96233690000372,20.78010809997795,m,0.8081703999778256,None,,,Subject_03,001,2025-11-23_16h21.20.695,Semantic priming with gender association,,2025.1.1,59.63889838395441,2025-11-23 16h21.32.335676 +0530,
Airshostess,feminine,f6.jpg,female,8,8,0,f,0.6098822999629192,None,0,8,8,31,20.79633779998403,,,,,,,,,20.790340100007597,20.79633779998403,21.279666299989913,21.297008999972604,22.281202799989842,22.281202799989842,22.281202799989842,22.899410100013483,f,0.6098822999629192,None,,,Subject_03,001,2025-11-23_16h21.20.695,Semantic priming with gender association,,2025.1.1,59.63889838395441,2025-11-23 16h21.32.335676 +0530,
Homemaker,feminine,f2.jpeg,female,9,9,0,f,0.4563675000099465,None,0,9,9,23,22.915666399989277,,,,,,,,,22.906946800008882,22.915666399989277,23.3994503999711,23.41625790001126,24.401107500016224,24.401107500016224,24.401107500016224,24.868230899970513,f,0.4563675000099465,None,,,Subject_03,001,2025-11-23_16h21.20.695,Semantic priming with gender association,,2025.1.1,59.63889838395441,2025-11-23 16h21.32.335676 +0530,
Blacksmith,masculine,m9.png,male,10,10,0,m,0.03547090000938624,None,0,10,10,16,24.910748599970248,,,,,,,,,24.904284099990036,24.910748599970248,25.368028600001708,25.417988699977286,26.368851199978963,26.368851199978963,26.368851199978963,26.419774400012102,m,0.03547090000938624,None,,,Subject_03,001,2025-11-23_16h21.20.695,Semantic priming with gender association,,2025.1.1,59.63889838395441,2025-11-23 16h21.32.335676 +0530,
Driver,masculine,f6.jpg,female,11,11,0,f,0.6104969999869354,None,0,11,11,11,26.438952299999073,,,,,,,,,26.433629899984226,26.438952299999073,26.91953180002747,26.952898300020024,27.92124509997666,27.92124509997666,27.92124509997666,28.538649199996144,f,0.6104969999869354,None,,,Subject_03,001,2025-11-23_16h21.20.695,Semantic priming with gender association,,2025.1.1,59.63889838395441,2025-11-23 16h21.32.335676 +0530,
Artist,neutral,m10.jpg,male,12,12,0,m,0.7445525000221096,None,0,12,12,38,28.576226599980146,,,,,,,,,28.568581699975766,28.576226599980146,29.038649099995382,29.08935309998924,30.0399740000139,30.0399740000139,30.0399740000139,30.791396000015084,m,0.7445525000221096,None,,,Subject_03,001,2025-11-23_16h21.20.695,Semantic priming with gender association,,2025.1.1,59.63889838395441,2025-11-23 16h21.32.335676 +0530,
Pilot,masculine,m8.jpg,male,13,13,0,m,1.2062885000486858,None,0,13,13,14,30.80746540002292,,,,,,,,,30.799162800016347,30.80746540002292,31.29111460002605,31.307754800014663,32.29226399998879,32.29226399998879,32.29226399998879,33.510628600022756,m,1.2062885000486858,None,,,Subject_03,001,2025-11-23_16h21.20.695,Semantic priming with gender association,,2025.1.1,59.63889838395441,2025-11-23 16h21.32.335676 +0530,
Ballerina,feminine,f10.jpg,female,14,14,0,f,0.4635437999968417,None,0,14,14,19,33.52693980000913,,,,,,,,,33.521089799993206,33.52693980000913,34.01063370000338,34.02726890001213,35.01170779997483,35.01170779997483,35.01170779997483,35.4794085000176,f,0.4635437999968417,None,,,Subject_03,001,2025-11-23_16h21.20.695,Semantic priming with gender association,,2025.1.1,59.63889838395441,2025-11-23 16h21.32.335676 +0530,
Librarian,feminine,f5.jpeg,female,15,15,0,f,0.7704134999657981,None,0,15,15,29,35.49524209997617,,,,,,,,,35.48700189997908,35.49524209997617,35.979825099988375,35.99642759998096,36.98082019999856,36.98082019999856,36.98082019999856,37.765268600021955,f,0.7704134999657981,None,,,Subject_03,001,2025-11-23_16h21.20.695,Semantic priming with gender association,,2025.1.1,59.63889838395441,2025-11-23 16h21.32.335676 +0530,
Babysitter,feminine,m1.jpg,male,16,16,0,m,0.3944393999991007,None,0,16,16,20,37.78144190000603,,,,,,,,,37.776409599988256,37.78144190000603,38.26512140000705,38.28188780002529,39.266934200015385,39.266934200015385,39.266934200015385,39.66740410000784,m,0.3944393999991007,None,,,Subject_03,001,2025-11-23_16h21.20.695,Semantic priming with gender association,,2025.1.1,59.63889838395441,2025-11-23 16h21.32.335676 +0530,
Hunter,masculine,m4.jpg,male,17,17,0,m,0.6078436000389047,None,0,17,17,6,39.68369769997662,,,,,,,,,39.6792143000057,39.68369769997662,40.16707610001322,40.183929999999236,41.16869929997483,41.16869929997483,41.16869929997483,41.7863618999836,m,0.6078436000389047,None,,,Subject_03,001,2025-11-23_16h21.20.695,Semantic priming with gender association,,2025.1.1,59.63889838395441,2025-11-23 16h21.32.335676 +0530,
Author,neutral,f1.jpg,female,18,18,0,f,0.5489087000023574,None,0,18,18,41,41.80265109997708,,,,,,,,,41.793681400013156,41.80265109997708,42.28648810001323,42.30312749999575,43.287310799991246,43.287310799991246,43.287310799991246,43.83846280002035,f,0.5489087000023574,None,,,Subject_03,001,2025-11-23_16h21.20.695,Semantic priming with gender association,,2025.1.1,59.63889838395441,2025-11-23 16h21.32.335676 +0530,
Republican,neutral,m5.jpeg,male,19,19,0,m,0.5286724999896251,None,0,19,19,48,43.85401409998303,,,,,,,,,43.84539610001957,43.85401409998303,44.338589199993294,44.355209600005765,45.339717699971516,45.339717699971516,45.339717699971516,45.87446479999926,m,0.5286724999896251,None,,,Subject_03,001,2025-11-23_16h21.20.695,Semantic priming with gender association,,2025.1.1,59.63889838395441,2025-11-23 16h21.32.335676 +0530,
Nanny,feminine,m9.png,male,20,20,0,m,0.684614000027068,None,0,20,20,36,45.92567319999216,,,,,,,,,45.918613000016194,45.92567319999216,46.37425940000685,46.44090769998729,47.37502520001726,47.37502520001726,47.37502520001726,48.060662999982014,m,0.684614000027068,None,,,Subject_03,001,2025-11-23_16h21.20.695,Semantic priming with gender association,,2025.1.1,59.63889838395441,2025-11-23 16h21.32.335676 +0530,
Babysitter,feminine,f1.jpg,female,21,21,0,f,0.5592509999987669,None,0,21,21,21,48.076673900010064,,,,,,,,,48.066960100026336,48.076673900010064,48.560466499999166,48.5773302000016,49.561187400016934,49.561187400016934,49.561187400016934,50.12920510000549,f,0.5592509999987669,None,,,Subject_03,001,2025-11-23_16h21.20.695,Semantic priming with gender association,,2025.1.1,59.63889838395441,2025-11-23 16h21.32.335676 +0530,
Ballerina,feminine,m10.jpg,male,22,22,0,f,1.1612132000154816,None,0,22,22,18,50.164889200008474,,,,,,,,,50.158306500001345,50.164889200008474,50.629091100010555,50.679006799997296,51.630082299991045,51.630082299991045,51.630082299991045,52.798938299994916,f,1.1612132000154816,None,,,Subject_03,001,2025-11-23_16h21.20.695,Semantic priming with gender association,,2025.1.1,59.63889838395441,2025-11-23 16h21.32.335676 +0530,
Prostitute,feminine,f8.jpeg,female,23,23,0,f,0.9638317000353709,None,0,23,23,35,52.81469799997285,,,,,,,,,52.80822970002191,52.81469799997285,53.298957300023176,53.315564599994104,54.3009960000054,54.3009960000054,54.3009960000054,55.268309900013264,f,0.9638317000353709,None,,,Subject_03,001,2025-11-23_16h21.20.695,Semantic priming with gender association,,2025.1.1,59.63889838395441,2025-11-23 16h21.32.335676 +0530,
Baker,neutral,m7.jpg,male,24,24,0,m,0.5292483000084758,None,0,24,24,52,55.28417840000475,,,,,,,,,55.27696119999746,55.28417840000475,55.76795830001356,55.78459799999837,56.768878799979575,56.768878799979575,56.768878799979575,57.30326100002276,m,0.5292483000084758,None,,,Subject_03,001,2025-11-23_16h21.20.695,Semantic priming with gender association,,2025.1.1,59.63889838395441,2025-11-23 16h21.32.335676 +0530,
Nurse,feminine,f3.jpg,female,25,25,0,f,0.5111457999446429,None,0,25,25,25,57.35265289997915,,,,,,,,,57.34087690000888,57.35265289997915,57.80336710001575,57.85364099999424,58.804340399976354,58.804340399976354,58.804340399976354,59.322222399991006,f,0.5111457999446429,None,,,Subject_03,001,2025-11-23_16h21.20.695,Semantic priming with gender association,,2025.1.1,59.63889838395441,2025-11-23 16h21.32.335676 +0530,
Doctor,masculine,m7.jpg,male,26,26,0,m,0.4591991000343114,None,0,26,26,12,59.33955999999307,,,,,,,,,59.334857299982104,59.33955999999307,59.821941300004255,59.83870720001869,60.82339089998277,60.82339089998277,60.82339089998277,61.29117089998908,m,0.4591991000343114,None,,,Subject_03,001,2025-11-23_16h21.20.695,Semantic priming with gender association,,2025.1.1,59.63889838395441,2025-11-23 16h21.32.335676 +0530,
Hunter,masculine,f4.jpg,female,27,27,0,f,0.8288198999944143,None,0,27,27,7,61.30779290001374,,,,,,,,,61.302536399976816,61.30779290001374,61.79124699998647,61.80809870001394,62.79203690000577,62.79203690000577,62.79203690000577,63.62718050001422,f,0.8288198999944143,None,,,Subject_03,001,2025-11-23_16h21.20.695,Semantic priming with gender association,,2025.1.1,59.63889838395441,2025-11-23 16h21.32.335676 +0530,
Artist,neutral,f10.jpg,female,28,28,0,f,0.9336745999753475,None,0,28,28,39,63.64325740002096,,,,,,,,,63.63815999997314,63.64325740002096,64.12841760000447,64.14428279997082,65.12869699997827,65.12869699997827,65.12869699997827,66.06302120001055,f,0.9336745999753475,None,,,Subject_03,001,2025-11-23_16h21.20.695,Semantic priming with gender association,,2025.1.1,59.63889838395441,2025-11-23 16h21.32.335676 +0530,
Banker,masculine,m2.jpg,male,29,29,0,m,0.3697218999732286,None,0,29,29,2,66.08032439998351,,,,,,,,,66.07539160002489,66.08032439998351,66.56365790002747,66.58080150000751,67.56464080000296,67.56464080000296,67.56464080000296,67.94924029998947,m,0.3697218999732286,None,,,Subject_03,001,2025-11-23_16h21.20.695,Semantic priming with gender association,,2025.1.1,59.63889838395441,2025-11-23 16h21.32.335676 +0530,
Homemaker,feminine,m2.jpg,male,30,30,0,m,1.104955399991013,None,0,30,30,22,67.96945069998037,,,,,,,,,67.96306460001506,67.96945069998037,68.44896730000619,68.48294610000448,69.44982280000113,69.44982280000113,69.44982280000113,70.56804099999135,m,1.104955399991013,None,,,Subject_03,001,2025-11-23_16h21.20.695,Semantic priming with gender association,,2025.1.1,59.63889838395441,2025-11-23 16h21.32.335676 +0530,
Lawyer,masculine,f5.jpeg,female,31,31,0,f,0.889136600017082,None,0,31,31,9,70.58417980000377,,,,,,,,,70.573120200017,70.58417980000377,71.06913080002414,71.08464999997523,72.06959979998646,72.06959979998646,72.06959979998646,72.97063180000987,f,0.889136600017082,None,,,Subject_03,001,2025-11-23_16h21.20.695,Semantic priming with gender association,,2025.1.1,59.63889838395441,2025-11-23 16h21.32.335676 +0530,
Reporter,neutral,f3.jpg,female,32,32,0,f,0.564011299982667,None,0,32,32,45,73.0185415999731,,,,,,,,,73.00612540001748,73.0185415999731,73.47107819997473,73.52121299999999,74.47206499997992,74.47206499997992,74.47206499997992,75.0395646999823,f,0.564011299982667,None,,,Subject_03,001,2025-11-23_16h21.20.695,Semantic priming with gender association,,2025.1.1,59.63889838395441,2025-11-23 16h21.32.335676 +0530,
Democrat,neutral,m4.jpg,male,33,33,0,m,0.5868044000235386,None,0,33,33,46,75.05810159997782,,,,,,,,,75.05334849999053,75.05810159997782,75.5393026000238,75.57297460001428,76.54048010002589,76.54048010002589,76.54048010002589,77.14199560001725,m,0.5868044000235386,None,,,Subject_03,001,2025-11-23_16h21.20.695,Semantic priming with gender association,,2025.1.1,59.63889838395441,2025-11-23 16h21.32.335676 +0530,
Nurse,feminine,m3.jpg,male,34,34,0,m,0.6458146999939345,None,0,34,34,24,77.15821409999626,,,,,,,,,77.1532122999779,77.15821409999626,77.64178940001875,77.65850469999714,78.64303869998548,78.64303869998548,78.64303869998548,79.29417539999122,m,0.6458146999939345,None,,,Subject_03,001,2025-11-23_16h21.20.695,Semantic priming with gender association,,2025.1.1,59.63889838395441,2025-11-23 16h21.32.335676 +0530,
Republican,neutral,f5.jpeg,female,35,35,0,f,0.6364163999678567,None,0,35,35,49,79.31009560002713,,,,,,,,,79.29966810002225,79.31009560002713,79.79387880000286,79.81055290001677,80.79586760001257,80.79586760001257,80.79586760001257,81.44654209999135,f,0.6364163999678567,None,,,Subject_03,001,2025-11-23_16h21.20.695,Semantic priming with gender association,,2025.1.1,59.63889838395441,2025-11-23 16h21.32.335676 +0530,
Airshostess,feminine,m6.jpg,male,36,36,0,m,0.441337600001134,None,0,36,36,30,81.4628588000196,,,,,,,,,81.45773750002263,81.4628588000196,81.94630559999496,81.96322719997261,82.94828750001034,82.94828750001034,82.94828750001034,83.39919560000999,m,0.441337600001134,None,,,Subject_03,001,2025-11-23_16h21.20.695,Semantic priming with gender association,,2025.1.1,59.63889838395441,2025-11-23 16h21.32.335676 +0530,
Prostitute,feminine,m8.jpg,male,37,37,0,m,0.534808200027328,None,0,37,37,34,83.41451739997137,,,,,,,,,83.40545000002021,83.41451739997137,83.89946829999099,83.91521399997873,84.89980650000507,84.89980650000507,84.89980650000507,85.45124159997795,m,0.534808200027328,None,,,Subject_03,001,2025-11-23_16h21.20.695,Semantic priming with gender association,,2025.1.1,59.63889838395441,2025-11-23 16h21.32.335676 +0530,
Lawyer,masculine,m5.jpeg,male,38,38,0,m,0.5181096000014804,None,0,38,38,8,85.4664237999823,,,,,,,,,85.45651370001724,85.4664237999823,85.95116810000036,85.96772379998583,86.95203829999082,86.95203829999082,86.95203829999082,87.48628150002332,m,0.5181096000014804,None,,,Subject_03,001,2025-11-23_16h21.20.695,Semantic priming with gender association,,2025.1.1,59.63889838395441,2025-11-23 16h21.32.335676 +0530,
Driver,masculine,m6.jpg,male,39,39,0,m,0.40570079995086417,None,0,39,39,10,87.50279659999069,,,,,,,,,87.4965203999891,87.50279659999069,87.98631559999194,88.00339610001538,88.9873306999798,88.9873306999798,88.9873306999798,89.40516899997601,m,0.40570079995086417,None,,,Subject_03,001,2025-11-23_16h21.20.695,Semantic priming with gender association,,2025.1.1,59.63889838395441,2025-11-23 16h21.32.335676 +0530,
Interpreter,neutral,f6.jpg,female,40,40,0,f,0.8441837999853306,None,0,40,40,51,89.42171289998805,,,,,,,,,89.41519289999269,89.42171289998805,89.90541210002266,89.92179079999914,90.90626590000466,90.90626590000466,90.90626590000466,91.75771739997435,f,0.8441837999853306,None,,,Subject_03,001,2025-11-23_16h21.20.695,Semantic priming with gender association,,2025.1.1,59.63889838395441,2025-11-23 16h21.32.335676 +0530,
Banker,masculine,f2.jpeg,female,41,41,0,f,0.8033427000045776,None,0,41,41,3,91.77492689999053,,,,,,,,,91.76622069999576,91.77492689999053,92.25745420000749,92.27419159997953,93.2592540999758,93.2592540999758,93.2592540999758,94.07773439999437,f,0.8033427000045776,None,,,Subject_03,001,2025-11-23_16h21.20.695,Semantic priming with gender association,,2025.1.1,59.63889838395441,2025-11-23 16h21.32.335676 +0530,
Democrat,neutral,f4.jpg,female,42,42,0,f,0.5378261000150815,None,0,42,42,47,94.09325680002803,,,,,,,,,94.08668740000576,94.09325680002803,94.57700059999479,94.59375639999053,95.57808519998798,95.57808519998798,95.57808519998798,96.12926369998604,f,0.5378261000150815,None,,,Subject_03,001,2025-11-23_16h21.20.695,Semantic priming with gender association,,2025.1.1,59.63889838395441,2025-11-23 16h21.32.335676 +0530,
Student,neutral,f2.jpeg,female,43,43,0,f,0.3503871000139043,None,0,43,43,43,96.14543390000472,,,,,,,,,96.13617239997257,96.14543390000472,96.62906930001918,96.64603659999557,97.63179339998169,97.63179339998169,97.63179339998169,97.99877629999537,f,0.3503871000139043,None,,,Subject_03,001,2025-11-23_16h21.20.695,Semantic priming with gender association,,2025.1.1,59.63889838395441,2025-11-23 16h21.32.335676 +0530,
Teacher,feminine,f7.jpg,female,44,44,0,f,0.6182517999550328,None,0,44,44,33,98.0151178999804,,,,,,,,,98.00528199999826,98.0151178999804,98.51480479998281,98.51480479998281,99.51596699998481,99.49991549999686,99.49991549999686,100.13340779999271,f,0.6182517999550328,None,,,Subject_03,001,2025-11-23_16h21.20.695,Semantic priming with gender association,,2025.1.1,59.63889838395441,2025-11-23 16h21.32.335676 +0530,
Librarian,feminine,m5.jpeg,male,45,45,0,f,0.8164976999978535,None,0,45,45,28,100.14995280001312,,,,,,,,,100.13903109997045,100.14995280001312,100.63364170002751,100.65030510001816,101.63483619998442,101.63483619998442,101.63483619998442,102.45267209998565,f,0.8164976999978535,None,,,Subject_03,001,2025-11-23_16h21.20.695,Semantic priming with gender association,,2025.1.1,59.63889838395441,2025-11-23 16h21.32.335676 +0530,
Baker,neutral,f7.jpg,female,46,46,0,f,0.7065840999712236,None,0,46,46,53,102.4688914999715,,,,,,,,,102.45945249998476,102.4688914999715,102.95339729997795,102.96941409999272,103.95423149998533,103.95423149998533,103.95423149998533,104.67268720001448,f,0.7065840999712236,None,,,Subject_03,001,2025-11-23_16h21.20.695,Semantic priming with gender association,,2025.1.1,59.63889838395441,2025-11-23 16h21.32.335676 +0530,
Secretary,feminine,m4.jpg,male,47,47,0,m,1.5166328999912366,None,0,47,47,26,104.69141730002593,,,,,,,,,104.68593530001817,104.69141730002593,105.17254100000719,105.20612450002227,106.1732835000148,106.1732835000148,106.1732835000148,107.69187639997108,m,1.5166328999912366,None,,,Subject_03,001,2025-11-23_16h21.20.695,Semantic priming with gender association,,2025.1.1,59.63889838395441,2025-11-23 16h21.32.335676 +0530,
Engineer,masculine,m3.jpg,male,48,48,0,m,1.1750373999821022,None,0,48,48,4,107.71098680002615,,,,,,,,,107.70613060001051,107.71098680002615,108.19198399997549,108.22528660000535,109.19287129997974,109.19287129997974,109.19287129997974,110.37878610001644,m,1.1750373999821022,None,,,Subject_03,001,2025-11-23_16h21.20.695,Semantic priming with gender association,,2025.1.1,59.63889838395441,2025-11-23 16h21.32.335676 +0530,
Author,neutral,m1.jpg,male,49,49,0,m,0.5197001000051387,None,0,49,49,40,110.39527699997416,,,,,,,,,110.3908620000002,110.39527699997416,110.87870180001482,110.89464960002806,111.8795189000084,111.8795189000084,111.8795189000084,112.41406849998748,m,0.5197001000051387,None,,,Subject_03,001,2025-11-23_16h21.20.695,Semantic priming with gender association,,2025.1.1,59.63889838395441,2025-11-23 16h21.32.335676 +0530,
Secretary,feminine,f4.jpg,female,50,50,0,f,0.5864021999877878,None,0,50,50,27,112.43060189997777,,,,,,,,,112.42587149998872,112.43060189997777,112.91387759998906,112.93079050001688,113.91526259999955,113.91526259999955,113.91526259999955,114.51670350000495,f,0.5864021999877878,None,,,Subject_03,001,2025-11-23_16h21.20.695,Semantic priming with gender association,,2025.1.1,59.63889838395441,2025-11-23 16h21.32.335676 +0530,
Reporter,neutral,m3.jpg,male,51,51,0,m,0.7562734999810345,None,0,51,51,44,114.53352709999308,,,,,,,,,114.5275290000136,114.53352709999308,115.01621480000904,115.03326970001217,116.01852590002818,116.01852590002818,116.01852590002818,116.78551090002293,m,0.7562734999810345,None,,,Subject_03,001,2025-11-23_16h21.20.695,Semantic priming with gender association,,2025.1.1,59.63889838395441,2025-11-23 16h21.32.335676 +0530,
Doctor,masculine,f7.jpg,female,52,52,0,f,0.8888210000004619,None,0,52,52,13,116.80130499997176,,,,,,,,,116.79083050001645,116.80130499997176,117.28504849999445,117.30170110001927,118.28677589999279,118.28677589999279,118.28677589999279,119.19033239997225,f,0.8888210000004619,None,,,Subject_03,001,2025-11-23_16h21.20.695,Semantic priming with gender association,,2025.1.1,59.63889838395441,2025-11-23 16h21.32.335676 +0530,
Interpreter,neutral,m6.jpg,male,53,53,0,m,0.6024657000089064,None,0,53,53,50,119.20851389999734,,,,,,,,,119.20289559999947,119.20851389999734,119.70774340000935,119.72110329999123,120.72290880000219,120.70658130000811,120.70658130000811,121.32382440002402,m,0.6024657000089064,None,,,Subject_03,001,2025-11-23_16h21.20.695,Semantic priming with gender association,,2025.1.1,59.63889838395441,2025-11-23 16h21.32.335676 +0530,
Democrat,neutral,f4.jpg,female,54,0,1,f,0.9511277999845333,None,1,0,54,47,121.3403849999886,,,,,,,,,121.33486180001637,121.3403849999886,121.8237026000279,121.84048369998345,122.8246573000215,122.8246573000215,122.8246573000215,123.77637540001888,f,0.9511277999845333,None,,,Subject_03,001,2025-11-23_16h21.20.695,Semantic priming with gender association,,2025.1.1,59.63889838395441,2025-11-23 16h21.32.335676 +0530,
Airshostess,feminine,m6.jpg,male,55,1,1,m,0.4056127999792807,None,1,1,55,30,123.79272069997387,,,,,,,,,123.78742639999837,123.79272069997387,124.27660079998896,124.29269869998097,125.27733239997178,125.27733239997178,125.27733239997178,125.69432329997653,m,0.4056127999792807,None,,,Subject_03,001,2025-11-23_16h21.20.695,Semantic priming with gender association,,2025.1.1,59.63889838395441,2025-11-23 16h21.32.335676 +0530,
Pilot,masculine,f8.jpeg,female,56,2,1,f,0.4359361999668181,None,1,2,56,15,125.71133919997374,,,,,,,,,125.70380070002284,125.71133919997374,126.19464030000381,126.21172080002725,127.19591130001936,127.19591130001936,127.19591130001936,127.64770879998105,f,0.4359361999668181,None,,,Subject_03,001,2025-11-23_16h21.20.695,Semantic priming with gender association,,2025.1.1,59.63889838395441,2025-11-23 16h21.32.335676 +0530,
Hunter,masculine,m4.jpg,male,57,3,1,m,0.45267660001991317,None,1,3,57,6,127.6664961000206,,,,,,,,,127.66172420000657,127.6664961000206,128.1473599000019,128.18205800000578,129.1483802999719,129.1483802999719,129.1483802999719,129.61567979998654,m,0.45267660001991317,None,,,Subject_03,001,2025-11-23_16h21.20.695,Semantic priming with gender association,,2025.1.1,59.63889838395441,2025-11-23 16h21.32.335676 +0530,
Republican,neutral,m5.jpeg,male,58,4,1,m,0.5283476999611594,None,1,4,58,48,129.63214880001033,,,,,,,,,129.62106380000478,129.63214880001033,130.11597079999046,130.13251480000326,131.11728160001803,131.11728160001803,131.11728160001803,131.6515748000238,m,0.5283476999611594,None,,,Subject_03,001,2025-11-23_16h21.20.695,Semantic priming with gender association,,2025.1.1,59.63889838395441,2025-11-23 16h21.32.335676 +0530,
Engineer,masculine,m3.jpg,male,59,5,1,m,0.5122715000179596,None,1,5,59,4,131.67013909999514,,,,,,,,,131.66521890001604,131.67013909999514,132.15220930002397,132.18489169998793,133.15523179998854,133.15523179998854,133.15523179998854,133.6707181999809,m,0.5122715000179596,None,,,Subject_03,001,2025-11-23_16h21.20.695,Semantic priming with gender association,,2025.1.1,59.63889838395441,2025-11-23 16h21.32.335676 +0530,
Nanny,feminine,m9.png,male,60,6,1,m,0.758748399966862,None,1,6,60,36,133.72401240002364,,,,,,,,,133.71002020000014,133.72401240002364,134.1710004999768,134.23754599998938,135.17181670002174,135.17181670002174,135.17181670002174,135.93969159998232,m,0.758748399966862,None,,,Subject_03,001,2025-11-23_16h21.20.695,Semantic priming with gender association,,2025.1.1,59.63889838395441,2025-11-23 16h21.32.335676 +0530,
Interpreter,neutral,m6.jpg,male,61,7,1,m,0.4423207000363618,None,1,7,61,50,135.95590429997537,,,,,,,,,135.94966849999037,135.95590429997537,136.44014979997883,136.45740700000897,137.4409333000076,137.4409333000076,137.4409333000076,137.89178820000961,m,0.4423207000363618,None,,,Subject_03,001,2025-11-23_16h21.20.695,Semantic priming with gender association,,2025.1.1,59.63889838395441,2025-11-23 16h21.32.335676 +0530,
Blacksmith,masculine,f9.jpg,female,62,8,1,f,0.45935049996478483,None,1,8,62,17,137.90782239998225,,,,,,,,,137.90019740001298,137.90782239998225,138.39217130001634,138.40811369998846,139.39331279997714,139.39331279997714,139.39331279997714,139.8605605000048,f,0.45935049996478483,None,,,Subject_03,001,2025-11-23_16h21.20.695,Semantic priming with gender association,,2025.1.1,59.63889838395441,2025-11-23 16h21.32.335676 +0530,
Lawyer,masculine,m5.jpeg,male,63,9,1,m,0.5864447999629192,None,1,9,63,8,139.87676050001755,,,,,,,,,139.86665939999511,139.87676050001755,140.36060299997916,140.37731259997236,141.36234380002134,141.36234380002134,141.36234380002134,141.96283739997307,m,0.5864447999629192,None,,,Subject_03,001,2025-11-23_16h21.20.695,Semantic priming with gender association,,2025.1.1,59.63889838395441,2025-11-23 16h21.32.335676 +0530,
Interpreter,neutral,f6.jpg,female,64,10,1,m,0.5160236999508925,None,1,10,64,51,141.97915989998728,,,,,,,,,141.9708928000182,141.97915989998728,142.46282419998897,142.4792912999983,143.46476190001704,143.46476190001704,143.46476190001704,143.98303230002057,m,0.5160236999508925,None,,,Subject_03,001,2025-11-23_16h21.20.695,Semantic priming with gender association,,2025.1.1,59.63889838395441,2025-11-23 16h21.32.335676 +0530,
Airshostess,feminine,f6.jpg,female,65,11,1,f,1.4608394999522716,None,1,11,65,31,143.9980957999942,,,,,,,,,143.99242829997092,143.9980957999942,144.49859319999814,144.49859319999814,145.49974759999895,145.4830296,145.4830296,146.95161679998273,f,1.4608394999522716,None,,,Subject_03,001,2025-11-23_16h21.20.695,Semantic priming with gender association,,2025.1.1,59.63889838395441,2025-11-23 16h21.32.335676 +0530,
Republican,neutral,f5.jpeg,female,66,12,1,f,0.7156338000204414,None,1,12,66,49,146.9679931999999,,,,,,,,,146.9581430000253,146.9679931999999,147.4530077999807,147.46867009997368,148.4532677999814,148.4532677999814,148.4532677999814,149.170633599977,f,0.7156338000204414,None,,,Subject_03,001,2025-11-23_16h21.20.695,Semantic priming with gender association,,2025.1.1,59.63889838395441,2025-11-23 16h21.32.335676 +0530,
Prostitute,feminine,m8.jpg,male,67,13,1,m,0.6017969999811612,None,1,13,67,34,149.18694669997785,,,,,,,,,149.17752029997064,149.18694669997785,149.67224200000055,149.6877163000172,150.67252760002157,150.67252760002157,150.67252760002157,151.29012000001967,m,0.6017969999811612,None,,,Subject_03,001,2025-11-23_16h21.20.695,Semantic priming with gender association,,2025.1.1,59.63889838395441,2025-11-23 16h21.32.335676 +0530,
Baker,neutral,m7.jpg,male,68,14,1,m,0.58591849997174,None,1,14,68,52,151.3061381999869,,,,,,,,,151.29856409999775,151.3061381999869,151.78985850000754,151.80663110001478,152.7923499000026,152.7923499000026,152.7923499000026,153.39296939998167,m,0.58591849997174,None,,,Subject_03,001,2025-11-23_16h21.20.695,Semantic priming with gender association,,2025.1.1,59.63889838395441,2025-11-23 16h21.32.335676 +0530,
Ballerina,feminine,m10.jpg,male,69,15,1,m,0.7464509999845177,None,1,15,69,18,153.4294028999866,,,,,,,,,153.42202260001795,153.4294028999866,153.89249769999878,153.941679999989,154.89315670001088,154.89315670001088,154.89315670001088,155.64474999997765,m,0.7464509999845177,None,,,Subject_03,001,2025-11-23_16h21.20.695,Semantic priming with gender association,,2025.1.1,59.63889838395441,2025-11-23 16h21.32.335676 +0530,
Homemaker,feminine,f2.jpeg,female,70,16,1,f,0.6399654999841005,None,1,16,70,23,155.6610543000279,,,,,,,,,155.6524275999982,155.6610543000279,156.14502659998834,156.16175989998737,157.14608969999244,157.14608969999244,157.14608969999244,157.800676200015,f,0.6399654999841005,None,,,Subject_03,001,2025-11-23_16h21.20.695,Semantic priming with gender association,,2025.1.1,59.63889838395441,2025-11-23 16h21.32.335676 +0530,
Engineer,masculine,f3.jpg,female,71,17,1,f,0.8888533000135794,None,1,17,71,5,157.85389059997397,,,,,,,,,157.84348049998516,157.85389059997397,158.31449289998272,158.3636387999868,159.31429910002043,159.31429910002043,159.31429910002043,160.2161031999858,f,0.8888533000135794,None,,,Subject_03,001,2025-11-23_16h21.20.695,Semantic priming with gender association,,2025.1.1,59.63889838395441,2025-11-23 16h21.32.335676 +0530,
Prostitute,feminine,f8.jpeg,female,72,18,1,f,0.4844996000174433,None,1,18,72,35,160.23244679998606,,,,,,,,,160.22686059999978,160.23244679998606,160.7160067000077,160.73284479998983,161.71815139998216,161.71815139998216,161.71815139998216,162.21913749998203,f,0.4844996000174433,None,,,Subject_03,001,2025-11-23_16h21.20.695,Semantic priming with gender association,,2025.1.1,59.63889838395441,2025-11-23 16h21.32.335676 +0530,
Secretary,feminine,f4.jpg,female,73,19,1,f,0.5734843999962322,None,1,19,73,27,162.2343105999753,,,,,,,,,162.22944919997826,162.2343105999753,162.73547219997272,162.73547219997272,163.73633699998027,163.71968570002355,163.71968570002355,164.3039143999922,f,0.5734843999962322,None,,,Subject_03,001,2025-11-23_16h21.20.695,Semantic priming with gender association,,2025.1.1,59.63889838395441,2025-11-23 16h21.32.335676 +0530,
Student,neutral,m2.jpg,male,74,20,1,m,0.40677390003111213,None,1,20,74,42,164.3217888000072,,,,,,,,,164.31642819999252,164.3217888000072,164.80448729998898,164.82024849997833,165.8057659000042,165.8057659000042,165.8057659000042,166.22347929998068,m,0.40677390003111213,None,,,Subject_03,001,2025-11-23_16h21.20.695,Semantic priming with gender association,,2025.1.1,59.63889838395441,2025-11-23 16h21.32.335676 +0530,
Lawyer,masculine,f5.jpeg,female,75,21,1,m,0.46788170002400875,None,1,21,75,9,166.23891140002524,,,,,,,,,166.22858709999127,166.23891140002524,166.72298489999957,166.7398965000175,167.72403649997432,167.72403649997432,167.72403649997432,168.20829679997405,m,0.46788170002400875,None,,,Subject_03,001,2025-11-23_16h21.20.695,Semantic priming with gender association,,2025.1.1,59.63889838395441,2025-11-23 16h21.32.335676 +0530,
Teacher,feminine,m7.jpg,male,76,22,1,m,1.5607204000116326,None,1,22,76,32,168.22447309998097,,,,,,,,,168.21860490000108,168.22447309998097,168.70881639997242,168.72518810001202,169.70916059997398,169.70916059997398,169.70916059997398,171.27805020002415,m,1.5607204000116326,None,,,Subject_03,001,2025-11-23_16h21.20.695,Semantic priming with gender association,,2025.1.1,59.63889838395441,2025-11-23 16h21.32.335676 +0530,
Doctor,masculine,m7.jpg,male,77,23,1,m,0.4464278999948874,None,1,23,77,12,171.29428249999182,,,,,,,,,171.2884685000172,171.29428249999182,171.77815799997188,171.79479969997192,172.77987339999527,172.77987339999527,172.77987339999527,173.23027260001982,m,0.4464278999948874,None,,,Subject_03,001,2025-11-23_16h21.20.695,Semantic priming with gender association,,2025.1.1,59.63889838395441,2025-11-23 16h21.32.335676 +0530,
Homemaker,feminine,m2.jpg,male,78,24,1,m,0.7431181999854743,None,1,24,78,22,173.2471526999725,,,,,,,,,173.2409816000145,173.2471526999725,173.7304628000129,173.7472583000199,174.73191209998913,174.73191209998913,174.73191209998913,175.48503179999534,m,0.7431181999854743,None,,,Subject_03,001,2025-11-23_16h21.20.695,Semantic priming with gender association,,2025.1.1,59.63889838395441,2025-11-23 16h21.32.335676 +0530,
Driver,masculine,f6.jpg,female,79,25,1,f,0.7155732999672182,None,1,25,79,11,175.50136519997614,,,,,,,,,175.49537120002788,175.50136519997614,175.9998845999944,176.01663630001713,177.00187879998703,176.98581699997885,176.98581699997885,177.71876259997953,f,0.7155732999672182,None,,,Subject_03,001,2025-11-23_16h21.20.695,Semantic priming with gender association,,2025.1.1,59.63889838395441,2025-11-23 16h21.32.335676 +0530,
Artist,neutral,m10.jpg,male,80,26,1,m,0.8937446000054479,None,1,26,80,38,177.7543518000166,,,,,,,,,177.74860589997843,177.7543518000166,178.21875890000956,178.2690463999752,179.21986630000174,179.21986630000174,179.21986630000174,180.12123340001563,m,0.8937446000054479,None,,,Subject_03,001,2025-11-23_16h21.20.695,Semantic priming with gender association,,2025.1.1,59.63889838395441,2025-11-23 16h21.32.335676 +0530,
Baker,neutral,f7.jpg,female,81,27,1,f,0.4177614999935031,None,1,27,81,53,180.13751089997822,,,,,,,,,180.1274157000007,180.13751089997822,180.62175029999344,180.6380504000117,181.62267259997316,181.62267259997316,181.62267259997316,182.05737449997105,f,0.4177614999935031,None,,,Subject_03,001,2025-11-23_16h21.20.695,Semantic priming with gender association,,2025.1.1,59.63889838395441,2025-11-23 16h21.32.335676 +0530,
Nanny,feminine,f9.jpg,female,82,28,1,f,0.4416483999812044,None,1,28,82,37,182.07339169998886,,,,,,,,,182.06807249999838,182.07339169998886,182.55661849997705,182.573874099995,183.55797010002425,183.55797010002425,183.55797010002425,184.00879140000325,f,0.4416483999812044,None,,,Subject_03,001,2025-11-23_16h21.20.695,Semantic priming with gender association,,2025.1.1,59.63889838395441,2025-11-23 16h21.32.335676 +0530,
Librarian,feminine,m5.jpeg,male,83,29,1,m,0.8540259000146762,None,1,29,83,28,184.02492910000728,,,,,,,,,184.0141406999901,184.02492910000728,184.50920560001396,184.52547250001226,185.5103083999711,185.5103083999711,185.5103083999711,186.3783668000251,m,0.8540259000146762,None,,,Subject_03,001,2025-11-23_16h21.20.695,Semantic priming with gender association,,2025.1.1,59.63889838395441,2025-11-23 16h21.32.335676 +0530,
Mechanic,masculine,m1.jpg,male,84,30,1,m,0.4118809000356123,None,1,30,84,0,186.39488300000085,,,,,,,,,186.38997830002336,186.39488300000085,186.8787246000138,186.89451509999344,187.87866400001803,187.87866400001803,187.87866400001803,188.29707470000722,m,0.4118809000356123,None,,,Subject_03,001,2025-11-23_16h21.20.695,Semantic priming with gender association,,2025.1.1,59.63889838395441,2025-11-23 16h21.32.335676 +0530,
Doctor,masculine,f7.jpg,female,85,31,1,f,0.5041600000113249,None,1,31,85,13,188.31293690000894,,,,,,,,,188.303866799979,188.31293690000894,188.79829710000195,188.81419329997152,189.79913609998766,189.79913609998766,189.79913609998766,190.31647949997569,f,0.5041600000113249,None,,,Subject_03,001,2025-11-23_16h21.20.695,Semantic priming with gender association,,2025.1.1,59.63889838395441,2025-11-23 16h21.32.335676 +0530,
Mechanic,masculine,f1.jpg,female,86,32,1,f,0.49469580000732094,None,1,32,86,1,190.33185519999824,,,,,,,,,190.32282170001417,190.33185519999824,190.81585989997257,190.83234680001624,191.81703660002677,191.81703660002677,191.81703660002677,192.3187906999956,f,0.49469580000732094,None,,,Subject_03,001,2025-11-23_16h21.20.695,Semantic priming with gender association,,2025.1.1,59.63889838395441,2025-11-23 16h21.32.335676 +0530,
Ballerina,feminine,f10.jpg,female,87,33,1,f,0.6980039000045508,None,1,33,87,19,192.33428800001275,,,,,,,,,192.32927930000005,192.33428800001275,192.8178126999992,192.83458510000492,193.81890780001413,193.81890780001413,193.81890780001413,194.5204618999851,f,0.6980039000045508,None,,,Subject_03,001,2025-11-23_16h21.20.695,Semantic priming with gender association,,2025.1.1,59.63889838395441,2025-11-23 16h21.32.335676 +0530,
Artist,neutral,f10.jpg,female,88,34,1,f,0.5206560000078753,None,1,34,88,39,194.53672009997535,,,,,,,,,194.52909490000457,194.53672009997535,195.02091299998574,195.03689460002352,196.02146700001322,196.02146700001322,196.02146700001322,196.55618670000695,f,0.5206560000078753,None,,,Subject_03,001,2025-11-23_16h21.20.695,Semantic priming with gender association,,2025.1.1,59.63889838395441,2025-11-23 16h21.32.335676 +0530,
Reporter,neutral,f3.jpg,female,89,35,1,f,0.40756099997088313,None,1,35,89,45,196.6077642000164,,,,,,,,,196.59860540000955,196.6077642000164,197.05624810000882,197.1229270999902,198.05750559997978,198.05750559997978,198.05750559997978,198.47616700001527,f,0.40756099997088313,None,,,Subject_03,001,2025-11-23_16h21.20.695,Semantic priming with gender association,,2025.1.1,59.63889838395441,2025-11-23 16h21.32.335676 +0530,
Blacksmith,masculine,m9.png,male,90,36,1,m,0.4313999000005424,None,1,36,90,16,198.5275518000126,,,,,,,,,198.51937310001813,198.5275518000126,198.99192509998102,199.04130939999595,199.99294680001913,199.97573230002308,199.97573230002308,200.41022459999658,m,0.4313999000005424,None,,,Subject_03,001,2025-11-23_16h21.20.695,Semantic priming with gender association,,2025.1.1,59.63889838395441,2025-11-23 16h21.32.335676 +0530,
Student,neutral,f2.jpeg,female,91,37,1,f,0.6905431000050157,None,1,37,91,43,200.4263457999914,,,,,,,,,200.417228300008,200.4263457999914,200.91002980002668,200.92664560000412,201.91178610001225,201.91178610001225,201.91178610001225,202.61326379998354,f,0.6905431000050157,None,,,Subject_03,001,2025-11-23_16h21.20.695,Semantic priming with gender association,,2025.1.1,59.63889838395441,2025-11-23 16h21.32.335676 +0530,
Secretary,feminine,m4.jpg,male,92,38,1,m,0.4976108999690041,None,1,38,92,26,202.63181440002518,,,,,,,,,202.62669529998675,202.63181440002518,203.1128271999769,203.14573240000755,204.11391680000816,204.11391680000816,204.11391680000816,204.6149437999702,m,0.4976108999690041,None,,,Subject_03,001,2025-11-23_16h21.20.695,Semantic priming with gender association,,2025.1.1,59.63889838395441,2025-11-23 16h21.32.335676 +0530,
Author,neutral,f1.jpg,female,93,39,1,f,0.7373719000024721,None,1,39,93,41,204.63089059997583,,,,,,,,,204.62127419997705,204.63089059997583,205.11484170000767,205.13150349998614,206.11629350000294,206.11629350000294,206.11629350000294,206.86734830000205,f,0.7373719000024721,None,,,Subject_03,001,2025-11-23_16h21.20.695,Semantic priming with gender association,,2025.1.1,59.63889838395441,2025-11-23 16h21.32.335676 +0530,
Babysitter,feminine,f1.jpg,female,94,40,1,f,0.6619164999574423,None,1,40,94,21,206.88336660002824,,,,,,,,,206.8742866999819,206.88336660002824,207.36767820001114,207.38369430002058,208.36884760000976,208.36884760000976,208.36884760000976,209.0368037999724,f,0.6619164999574423,None,,,Subject_03,001,2025-11-23_16h21.20.695,Semantic priming with gender association,,2025.1.1,59.63889838395441,2025-11-23 16h21.32.335676 +0530,
Babysitter,feminine,m1.jpg,male,95,41,1,m,0.4888366999803111,None,1,41,95,20,209.0529377000057,,,,,,,,,209.044906599971,209.0529377000057,209.53649660001975,209.5533257999923,210.5375127000152,210.5375127000152,210.5375127000152,211.0387095999904,m,0.4888366999803111,None,,,Subject_03,001,2025-11-23_16h21.20.695,Semantic priming with gender association,,2025.1.1,59.63889838395441,2025-11-23 16h21.32.335676 +0530,
Librarian,feminine,f5.jpeg,female,96,42,1,f,0.6256136000156403,None,1,42,96,29,211.05468659999315,,,,,,,,,211.04480849998072,211.05468659999315,211.53885389998322,211.55509819998406,212.5394104999723,212.5394104999723,212.5394104999723,213.17459559999406,f,0.6256136000156403,None,,,Subject_03,001,2025-11-23_16h21.20.695,Semantic priming with gender association,,2025.1.1,59.63889838395441,2025-11-23 16h21.32.335676 +0530,
Teacher,feminine,f7.jpg,female,97,43,1,f,0.5050334999687038,None,1,43,97,33,213.19056429999182,,,,,,,,,213.18099269998493,213.19056429999182,213.67459840001538,213.6915487999795,214.67538520001108,214.67538520001108,214.67538520001108,215.19318180001574,f,0.5050334999687038,None,,,Subject_03,001,2025-11-23_16h21.20.695,Semantic priming with gender association,,2025.1.1,59.63889838395441,2025-11-23 16h21.32.335676 +0530,
Banker,masculine,m2.jpg,male,98,44,1,m,0.51497030002065,None,1,44,98,2,215.20921379997162,,,,,,,,,215.2045348000247,215.20921379997162,215.69289900001604,215.7098069000058,216.69426149997162,216.69426149997162,216.69426149997162,217.21205610001925,m,0.51497030002065,None,,,Subject_03,001,2025-11-23_16h21.20.695,Semantic priming with gender association,,2025.1.1,59.63889838395441,2025-11-23 16h21.32.335676 +0530,
Reporter,neutral,m3.jpg,male,99,45,1,m,0.6664859000011347,None,1,45,99,44,217.22837349999463,,,,,,,,,217.2223700999748,217.22837349999463,217.7128803000087,217.72881669999333,218.71290179999778,218.71290179999778,218.71290179999778,219.38074290001532,m,0.6664859000011347,None,,,Subject_03,001,2025-11-23_16h21.20.695,Semantic priming with gender association,,2025.1.1,59.63889838395441,2025-11-23 16h21.32.335676 +0530,
Pilot,masculine,m8.jpg,male,100,46,1,m,0.7489327999646775,None,1,46,100,14,219.39706689998275,,,,,,,,,219.3884936000104,219.39706689998275,219.88123930001166,219.8981563000125,220.88244780001696,220.88244780001696,220.88244780001696,221.63323229999514,m,0.7489327999646775,None,,,Subject_03,001,2025-11-23_16h21.20.695,Semantic priming with gender association,,2025.1.1,59.63889838395441,2025-11-23 16h21.32.335676 +0530,
Banker,masculine,f2.jpeg,female,101,47,1,f,0.4442156000295654,None,1,47,101,3,221.6495282999822,,,,,,,,,221.64012910000747,221.6495282999822,222.1335208999808,222.1511759000132,223.13491449999856,223.13491449999856,223.13491449999856,223.5857344000251,f,0.4442156000295654,None,,,Subject_03,001,2025-11-23_16h21.20.695,Semantic priming with gender association,,2025.1.1,59.63889838395441,2025-11-23 16h21.32.335676 +0530,
Nurse,feminine,m3.jpg,male,102,48,1,m,0.6074549999902956,None,1,48,102,24,223.60411580000073,,,,,,,,,223.59919889998855,223.60411580000073,224.08554699999513,224.11897860001773,225.0866570000071,225.0866570000071,225.0866570000071,225.70477790001314,m,0.6074549999902956,None,,,Subject_03,001,2025-11-23_16h21.20.695,Semantic priming with gender association,,2025.1.1,59.63889838395441,2025-11-23 16h21.32.335676 +0530,
Author,neutral,m1.jpg,male,103,49,1,f,0.702565899991896,None,1,49,103,40,225.7246849000221,,,,,,,,,225.7180486000143,225.7246849000221,226.20477650000248,226.23911219998263,227.20598640001845,227.20598640001845,227.20598640001845,227.92692619998707,f,0.702565899991896,None,,,Subject_03,001,2025-11-23_16h21.20.695,Semantic priming with gender association,,2025.1.1,59.63889838395441,2025-11-23 16h21.32.335676 +0530,
Hunter,masculine,f4.jpg,female,104,50,1,f,0.7858392000198364,None,1,50,104,7,227.9404781999765,,,,,,,,,227.93472840002505,227.9404781999765,228.4417272999999,228.4417272999999,229.44256350002252,229.44256350002252,229.44256350002252,230.24321889999555,f,0.7858392000198364,None,,,Subject_03,001,2025-11-23_16h21.20.695,Semantic priming with gender association,,2025.1.1,59.63889838395441,2025-11-23 16h21.32.335676 +0530,
Democrat,neutral,m4.jpg,male,105,51,1,m,0.5326896999613382,None,1,51,105,46,230.26100519998,,,,,,,,,230.25573680002708,230.26100519998,230.74328120000428,230.77599280001596,231.74362540000584,231.74362540000584,231.74362540000584,232.27860209997743,m,0.5326896999613382,None,,,Subject_03,001,2025-11-23_16h21.20.695,Semantic priming with gender association,,2025.1.1,59.63889838395441,2025-11-23 16h21.32.335676 +0530,
Nurse,feminine,f3.jpg,female,106,52,1,f,1.5082208000239916,None,1,52,106,25,232.32390149997082,,,,,,,,,232.3156655000057,232.32390149997082,232.77868689998286,232.82875719998265,233.77929699997185,233.77929699997185,233.77929699997185,235.29843059997074,f,1.5082208000239916,None,,,Subject_03,001,2025-11-23_16h21.20.695,Semantic priming with gender association,,2025.1.1,59.63889838395441,2025-11-23 16h21.32.335676 +0530,
Driver,masculine,m6.jpg,male,107,53,1,m,0.45958670001709834,None,1,53,107,10,235.31487349997042,,,,,,,,,235.31050249998225,235.31487349997042,235.79823449999094,235.81514510000125,236.79986239998834,236.79986239998834,236.79986239998834,237.26822490000632,m,0.45958670001709834,None,,,Subject_03,001,2025-11-23_16h21.20.695,Semantic priming with gender association,,2025.1.1,59.63889838395441,2025-11-23 16h21.32.335676 +0530,
,,,,,,,,,,,,,,,,,,,,,,,,,,,,,,,,,,237.26834740000777,237.2840465999907,,,,,,,,,
