prime_word,prime_gender,target_image,target_gender,thisN,thisTrialN,thisRepN,key_resp.keys,key_resp.rt,key_resp.duration,trials.thisRepN,trials.thisTrialN,trials.thisN,trials.thisIndex,thisRow.t,notes,Instructions.started,text_2.started,key_resp_2.started,Instructions.stopped,key_resp_2.keys,key_resp_2.rt,key_resp_2.duration,trial.started,fixation.started,prime.started,fixation.stopped,prime.stopped,target_picture.started,key_resp.started,trial.stopped,trials.key_resp.keys,trials.key_resp.rt,trials.key_resp.duration,Thankyou.started,text.started,participant,session,date,expName,expVersion,psychopyVersion,frameRate,expStart,
,,,,,,,,,,,,,,,,0.004146500024944544,0.015197100001387298,0.015197100001387298,7.916798899997957,space,7.884789100033231,None,,,,,,,,,,,,,,Subject-04,001,2025-11-23_16h25.43.724,Semantic priming with gender association,,2025.1.1,59.63740457545575,2025-11-23 16h26.03.774932 +0530,
Baker,neutral,m7.jpg,male,0,0,0,m,0.6667047999799252,None,0,0,0,52,7.947728500002995,,,,,,,,,7.941405099991243,7.947728500002995,8.425193500006571,8.458430500002578,9.427063899987843,9.427063899987843,9.427063899987843,10.1107878999901,m,0.6667047999799252,None,,,Subject-04,001,2025-11-23_16h25.43.724,Semantic priming with gender association,,2025.1.1,59.63740457545575,2025-11-23 16h26.03.774932 +0530,
Blacksmith,masculine,m9.png,male,1,1,0,m,0.8126461999490857,None,0,1,1,16,10.1556169000105,,,,,,,,,10.149576499999966,10.1556169000105,10.61051770002814,10.660825999977533,11.611608100007288,11.611608100007288,11.611608100007288,12.430128999985754,m,0.8126461999490857,None,,,Subject-04,001,2025-11-23_16h25.43.724,Semantic priming with gender association,,2025.1.1,59.63740457545575,2025-11-23 16h26.03.774932 +0530,
Democrat,neutral,f4.jpg,female,2,2,0,f,0.6510940999723971,None,0,2,2,47,12.445715699985158,,,,,,,,,12.441722000017762,12.445715699985158,12.929945999989286,12.9471254000091,13.93100029998459,13.93100029998459,13.93100029998459,14.598516000027303,f,0.6510940999723971,None,,,Subject-04,001,2025-11-23_16h25.43.724,Semantic priming with gender association,,2025.1.1,59.63740457545575,2025-11-23 16h26.03.774932 +0530,
Nanny,feminine,f9.jpg,female,3,3,0,f,0.5044215000234544,None,0,3,3,37,14.614252800005488,,,,,,,,,14.60916079999879,14.614252800005488,15.098772400000598,15.115480699983891,16.09974269999657,16.09974269999657,16.09974269999657,16.617535300028976,f,0.5044215000234544,None,,,Subject-04,001,2025-11-23_16h25.43.724,Semantic priming with gender association,,2025.1.1,59.63740457545575,2025-11-23 16h26.03.774932 +0530,
Secretary,feminine,m4.jpg,male,4,4,0,m,0.5813789999810979,None,0,4,4,26,16.63666269998066,,,,,,,,,16.631280199973844,16.63666269998066,17.117525200010277,17.150872499973048,18.11921049997909,18.11921049997909,18.11921049997909,18.70332359999884,m,0.5813789999810979,None,,,Subject-04,001,2025-11-23_16h25.43.724,Semantic priming with gender association,,2025.1.1,59.63740457545575,2025-11-23 16h26.03.774932 +0530,
Lawyer,masculine,f5.jpeg,female,5,5,0,m,0.5058594000292942,None,0,5,5,9,18.71946079999907,,,,,,,,,18.708812800003216,18.71946079999907,19.203751599998213,19.22016219998477,20.205167300009634,20.205167300009634,20.205167300009634,20.721646999998484,m,0.5058594000292942,None,,,Subject-04,001,2025-11-23_16h25.43.724,Semantic priming with gender association,,2025.1.1,59.63740457545575,2025-11-23 16h26.03.774932 +0530,
Nurse,feminine,f3.jpg,female,6,6,0,f,0.8320065999869257,None,0,6,6,25,20.77452049998101,,,,,,,,,20.75545900000725,20.77452049998101,21.222754599992186,21.289002200006507,22.22345619997941,22.22345619997941,22.22345619997941,23.058084700023755,f,0.8320065999869257,None,,,Subject-04,001,2025-11-23_16h25.43.724,Semantic priming with gender association,,2025.1.1,59.63740457545575,2025-11-23 16h26.03.774932 +0530,
Babysitter,feminine,m1.jpg,male,7,7,0,m,0.5248332999763079,None,0,7,7,20,23.074460999981966,,,,,,,,,23.068797899992205,23.074460999981966,23.558269499975722,23.575017100025434,24.558938100002706,24.558938100002706,24.558938100002706,25.094340400013607,m,0.5248332999763079,None,,,Subject-04,001,2025-11-23_16h25.43.724,Semantic priming with gender association,,2025.1.1,59.63740457545575,2025-11-23 16h26.03.774932 +0530,
Reporter,neutral,f3.jpg,female,8,8,0,f,0.4540218000183813,None,0,8,8,45,25.1388490999816,,,,,,,,,25.131066899979487,25.1388490999816,25.593534199986607,25.6450293000089,26.595647900016047,26.595647900016047,26.595647900016047,27.051478300010785,f,0.4540218000183813,None,,,Subject-04,001,2025-11-23_16h25.43.724,Semantic priming with gender association,,2025.1.1,59.63740457545575,2025-11-23 16h26.03.774932 +0530,
Republican,neutral,m5.jpeg,male,9,9,0,m,0.4944177999859676,None,0,9,9,48,27.061953300028108,,,,,,,,,27.057310900010634,27.061953300028108,27.562523200002033,27.562523200002033,28.56423650000943,28.56423650000943,28.56423650000943,29.064625400002114,m,0.4944177999859676,None,,,Subject-04,001,2025-11-23_16h25.43.724,Semantic priming with gender association,,2025.1.1,59.63740457545575,2025-11-23 16h26.03.774932 +0530,
Interpreter,neutral,f6.jpg,female,10,10,0,f,0.5019675000221469,None,0,10,10,51,29.080868699995335,,,,,,,,,29.075581500015687,29.080868699995335,29.564440399990417,29.581329700013157,30.566505299997516,30.566505299997516,30.566505299997516,31.083588299981784,f,0.5019675000221469,None,,,Subject-04,001,2025-11-23_16h25.43.724,Semantic priming with gender association,,2025.1.1,59.63740457545575,2025-11-23 16h26.03.774932 +0530,
Banker,masculine,m2.jpg,male,11,11,0,m,0.6095390999689698,None,0,11,11,2,31.100654200010467,,,,,,,,,31.096335100010037,31.100654200010467,31.583894399984274,31.599833099986427,32.58471050002845,32.58471050002845,32.58471050002845,33.20279730000766,m,0.6095390999689698,None,,,Subject-04,001,2025-11-23_16h25.43.724,Semantic priming with gender association,,2025.1.1,59.63740457545575,2025-11-23 16h26.03.774932 +0530,
Librarian,feminine,f5.jpeg,female,12,12,0,f,0.3459624999668449,None,0,12,12,29,33.219055699999444,,,,,,,,,33.20693450002,33.219055699999444,33.70248320000246,33.719156400009524,34.70337980001932,34.70337980001932,34.70337980001932,35.054299400013406,f,0.3459624999668449,None,,,Subject-04,001,2025-11-23_16h25.43.724,Semantic priming with gender association,,2025.1.1,59.63740457545575,2025-11-23 16h26.03.774932 +0530,
Pilot,masculine,f8.jpeg,female,13,13,0,m,0.38778230000752956,None,0,13,13,15,35.07075559999794,,,,,,,,,35.06435459997738,35.07075559999794,35.553892600000836,35.5705350000062,36.55585800000699,36.55585800000699,36.55585800000699,36.95624129998032,m,0.38778230000752956,None,,,Subject-04,001,2025-11-23_16h25.43.724,Semantic priming with gender association,,2025.1.1,59.63740457545575,2025-11-23 16h26.03.774932 +0530,
Baker,neutral,f7.jpg,female,14,14,0,f,1.0729065999621525,None,0,14,14,53,36.97248450003099,,,,,,,,,36.96337630000198,36.97248450003099,37.457055200007744,37.47300430003088,38.457935100013856,38.457935100013856,38.457935100013856,39.542320500011556,f,1.0729065999621525,None,,,Subject-04,001,2025-11-23_16h25.43.724,Semantic priming with gender association,,2025.1.1,59.63740457545575,2025-11-23 16h26.03.774932 +0530,
Airshostess,feminine,f6.jpg,female,15,15,0,f,0.5947387000196613,None,0,15,15,31,39.55879450001521,,,,,,,,,39.550391700002365,39.55879450001521,40.042467800027225,40.058936599991284,41.04444720002357,41.04444720002357,41.04444720002357,41.644938400015235,f,0.5947387000196613,None,,,Subject-04,001,2025-11-23_16h25.43.724,Semantic priming with gender association,,2025.1.1,59.63740457545575,2025-11-23 16h26.03.774932 +0530,
Banker,masculine,f2.jpeg,female,16,16,0,f,0.7217303999932483,None,0,16,16,3,41.661258600011934,,,,,,,,,41.651583799975924,41.661258600011934,42.144937100005336,42.16156570002204,43.14666969998507,43.14666969998507,43.14666969998507,43.881735700007994,f,0.7217303999932483,None,,,Subject-04,001,2025-11-23_16h25.43.724,Semantic priming with gender association,,2025.1.1,59.63740457545575,2025-11-23 16h26.03.774932 +0530,
Student,neutral,m2.jpg,male,17,17,0,m,0.582044999988284,None,0,17,17,42,43.89787719998276,,,,,,,,,43.89217800000915,43.89787719998276,44.39730930002406,44.39730930002406,45.39838199998485,45.38239679997787,45.38239679997787,45.96657609997783,m,0.582044999988284,None,,,Subject-04,001,2025-11-23_16h25.43.724,Semantic priming with gender association,,2025.1.1,59.63740457545575,2025-11-23 16h26.03.774932 +0530,
Doctor,masculine,m7.jpg,male,18,18,0,m,0.5822381000034511,None,0,18,18,12,45.98276530002477,,,,,,,,,45.97656189999543,45.98276530002477,46.466391600028146,46.48302360001253,47.46736800001236,47.46736800001236,47.46736800001236,48.05240560002858,m,0.5822381000034511,None,,,Subject-04,001,2025-11-23_16h25.43.724,Semantic priming with gender association,,2025.1.1,59.63740457545575,2025-11-23 16h26.03.774932 +0530,
Librarian,feminine,m5.jpeg,male,19,19,0,m,0.44917430001078174,None,0,19,19,28,48.06865630001994,,,,,,,,,48.057711599976756,48.06865630001994,48.552270099986345,48.56861429999117,49.55391319998307,49.55391319998307,49.55391319998307,50.004432999994606,m,0.44917430001078174,None,,,Subject-04,001,2025-11-23_16h25.43.724,Semantic priming with gender association,,2025.1.1,59.63740457545575,2025-11-23 16h26.03.774932 +0530,
Blacksmith,masculine,f9.jpg,female,20,20,0,f,0.7739478999865241,None,0,20,20,17,50.021003199974075,,,,,,,,,50.01534839998931,50.021003199974075,50.504587800009176,50.521168100007344,51.505555899988394,51.505555899988394,51.505555899988394,52.29066709999461,f,0.7739478999865241,None,,,Subject-04,001,2025-11-23_16h25.43.724,Semantic priming with gender association,,2025.1.1,59.63740457545575,2025-11-23 16h26.03.774932 +0530,
Homemaker,feminine,m2.jpg,male,21,21,0,m,1.1335966999758966,None,0,21,21,22,52.313085000030696,,,,,,,,,52.3066246000235,52.313085000030696,52.79020470002433,52.82314649998443,53.79207550000865,53.79207550000865,53.79207550000865,54.94293389999075,m,1.1335966999758966,None,,,Subject-04,001,2025-11-23_16h25.43.724,Semantic priming with gender association,,2025.1.1,59.63740457545575,2025-11-23 16h26.03.774932 +0530,
Nurse,feminine,m3.jpg,male,22,22,0,m,0.6301691000116989,None,0,22,22,24,54.96251199999824,,,,,,,,,54.95814160001464,54.96251199999824,55.443041099992115,55.476415499986615,56.44392859999789,56.44392859999789,56.44392859999789,57.078965299995616,m,0.6301691000116989,None,,,Subject-04,001,2025-11-23_16h25.43.724,Semantic priming with gender association,,2025.1.1,59.63740457545575,2025-11-23 16h26.03.774932 +0530,
Teacher,feminine,f7.jpg,female,23,23,0,f,0.4808225000160746,None,0,23,23,33,57.09540510002989,,,,,,,,,57.08519499999238,57.09540510002989,57.57837900001323,57.59531290002633,58.57970150001347,58.57970150001347,58.57970150001347,59.06427889998304,f,0.4808225000160746,None,,,Subject-04,001,2025-11-23_16h25.43.724,Semantic priming with gender association,,2025.1.1,59.63740457545575,2025-11-23 16h26.03.774932 +0530,
Babysitter,feminine,f1.jpg,female,24,24,0,f,0.4801990000414662,None,0,24,24,21,59.080622099980246,,,,,,,,,59.07207090000156,59.080622099980246,59.56443570001284,59.58113439998124,60.56561240000883,60.56561240000883,60.56561240000883,61.04942980001215,f,0.4801990000414662,None,,,Subject-04,001,2025-11-23_16h25.43.724,Semantic priming with gender association,,2025.1.1,59.63740457545575,2025-11-23 16h26.03.774932 +0530,
Reporter,neutral,m3.jpg,male,25,25,0,m,0.7199283000081778,None,0,25,25,44,61.06582369998796,,,,,,,,,61.06118379998952,61.06582369998796,61.54948769998737,61.56630090001272,62.551577600010205,62.551577600010205,62.551577600010205,63.28530210000463,m,0.7199283000081778,None,,,Subject-04,001,2025-11-23_16h25.43.724,Semantic priming with gender association,,2025.1.1,59.63740457545575,2025-11-23 16h26.03.774932 +0530,
Mechanic,masculine,m1.jpg,male,26,26,0,m,0.7785086999647319,None,0,26,26,0,63.302761500002816,,,,,,,,,63.297539599996526,63.302761500002816,63.7849987000227,63.81883900001412,64.78706389997387,64.78706389997387,64.78706389997387,65.57187460002024,m,0.7785086999647319,None,,,Subject-04,001,2025-11-23_16h25.43.724,Semantic priming with gender association,,2025.1.1,59.63740457545575,2025-11-23 16h26.03.774932 +0530,
Airshostess,feminine,m6.jpg,male,27,27,0,f,0.9453101000399329,None,0,27,27,30,65.58754129998852,,,,,,,,,65.58229410002241,65.58754129998852,66.07129069999792,66.0879900000291,67.07241349999094,67.07241349999094,67.07241349999094,68.02418770000804,f,0.9453101000399329,None,,,Subject-04,001,2025-11-23_16h25.43.724,Semantic priming with gender association,,2025.1.1,59.63740457545575,2025-11-23 16h26.03.774932 +0530,
Author,neutral,m1.jpg,male,28,28,0,m,0.9233691999688745,None,0,28,28,40,68.0428412000183,,,,,,,,,68.03628529998241,68.0428412000183,68.52365569997346,68.5573008999927,69.5254772999906,69.5254772999906,69.5254772999906,70.45996050001122,m,0.9233691999688745,None,,,Subject-04,001,2025-11-23_16h25.43.724,Semantic priming with gender association,,2025.1.1,59.63740457545575,2025-11-23 16h26.03.774932 +0530,
Ballerina,feminine,m10.jpg,male,29,29,0,m,0.8051427999744192,None,0,29,29,18,70.49496430001454,,,,,,,,,70.48848449997604,70.49496430001454,70.95966360002058,71.01003409997793,71.96156219998375,71.96156219998375,71.96156219998375,72.77963820000878,m,0.8051427999744192,None,,,Subject-04,001,2025-11-23_16h25.43.724,Semantic priming with gender association,,2025.1.1,59.63740457545575,2025-11-23 16h26.03.774932 +0530,
Student,neutral,f2.jpeg,female,30,30,0,f,1.0454148999997415,None,0,30,30,43,72.79554479999933,,,,,,,,,72.78701899998123,72.79554479999933,73.27921180002159,73.29589609999675,74.28036739997333,74.28036739997333,74.28036739997333,75.33357880002586,f,1.0454148999997415,None,,,Subject-04,001,2025-11-23_16h25.43.724,Semantic priming with gender association,,2025.1.1,59.63740457545575,2025-11-23 16h26.03.774932 +0530,
Prostitute,feminine,f8.jpeg,female,31,31,0,f,1.0762169000227004,None,0,31,31,35,75.3508025999763,,,,,,,,,75.34612629999174,75.3508025999763,75.84874619997572,75.86561099998653,76.85040060000028,76.83310240000719,76.83310240000719,77.91804600000614,f,1.0762169000227004,None,,,Subject-04,001,2025-11-23_16h25.43.724,Semantic priming with gender association,,2025.1.1,59.63740457545575,2025-11-23 16h26.03.774932 +0530,
Interpreter,neutral,m6.jpg,male,32,32,0,m,0.4850027000065893,None,0,32,32,50,77.93445260002045,,,,,,,,,77.92751569999382,77.93445260002045,78.41812470002333,78.43487440003082,79.41926009999588,79.41926009999588,79.41926009999588,79.92121380002936,m,0.4850027000065893,None,,,Subject-04,001,2025-11-23_16h25.43.724,Semantic priming with gender association,,2025.1.1,59.63740457545575,2025-11-23 16h26.03.774932 +0530,
Nanny,feminine,m9.png,male,33,33,0,m,0.6346926999976858,None,0,33,33,36,79.97280909999972,,,,,,,,,79.96322480001254,79.97280909999972,80.42058530001668,80.48707420000574,81.42193950002547,81.42193950002547,81.42193950002547,82.07294759998331,m,0.6346926999976858,None,,,Subject-04,001,2025-11-23_16h25.43.724,Semantic priming with gender association,,2025.1.1,59.63740457545575,2025-11-23 16h26.03.774932 +0530,
Doctor,masculine,f7.jpg,female,34,34,0,f,0.3674532000441104,None,0,34,34,13,82.08900320000248,,,,,,,,,82.07944290002342,82.08900320000248,82.57274799997685,82.58979340002406,83.57364199997392,83.57364199997392,83.57364199997392,83.95811559999129,f,0.3674532000441104,None,,,Subject-04,001,2025-11-23_16h25.43.724,Semantic priming with gender association,,2025.1.1,59.63740457545575,2025-11-23 16h26.03.774932 +0530,
Engineer,masculine,f3.jpg,female,35,35,0,f,0.7856007000082172,None,0,35,35,5,84.0078419999918,,,,,,,,,83.99923100002343,84.0078419999918,84.45809329999611,84.50818419997813,85.45904589997372,85.45904589997372,85.45904589997372,86.26099630002864,f,0.7856007000082172,None,,,Subject-04,001,2025-11-23_16h25.43.724,Semantic priming with gender association,,2025.1.1,59.63740457545575,2025-11-23 16h26.03.774932 +0530,
Engineer,masculine,m3.jpg,male,36,36,0,m,0.43792160000884905,None,0,36,36,4,86.27711439999985,,,,,,,,,86.27125839999644,86.27711439999985,86.76074759999756,86.77886389999185,87.76180759997806,87.76180759997806,87.76180759997806,88.21307870000601,m,0.43792160000884905,None,,,Subject-04,001,2025-11-23_16h25.43.724,Semantic priming with gender association,,2025.1.1,59.63740457545575,2025-11-23 16h26.03.774932 +0530,
Artist,neutral,m10.jpg,male,37,37,0,m,0.6327670000027865,None,0,37,37,38,88.25477870000759,,,,,,,,,88.24806960002752,88.25477870000759,88.71302590001142,88.76276439998765,89.71426079998491,89.71426079998491,89.71426079998491,90.34855290001724,m,0.6327670000027865,None,,,Subject-04,001,2025-11-23_16h25.43.724,Semantic priming with gender association,,2025.1.1,59.63740457545575,2025-11-23 16h26.03.774932 +0530,
Ballerina,feminine,f10.jpg,female,38,38,0,f,0.5352729999576695,None,0,38,38,19,90.36483719997341,,,,,,,,,90.36054379999405,90.36483719997341,90.84841139998753,90.86512319999747,91.84954139997717,91.84954139997717,91.84954139997717,92.40096970001468,f,0.5352729999576695,None,,,Subject-04,001,2025-11-23_16h25.43.724,Semantic priming with gender association,,2025.1.1,59.63740457545575,2025-11-23 16h26.03.774932 +0530,
Lawyer,masculine,m5.jpeg,male,39,39,0,m,0.550278700015042,None,0,39,39,8,92.41699810000136,,,,,,,,,92.40626509999856,92.41699810000136,92.90053340001032,92.91745780000929,93.90194339997834,93.90194339997834,93.90194339997834,94.45270490000257,m,0.550278700015042,None,,,Subject-04,001,2025-11-23_16h25.43.724,Semantic priming with gender association,,2025.1.1,59.63740457545575,2025-11-23 16h26.03.774932 +0530,
Homemaker,feminine,f2.jpeg,female,40,40,0,f,0.46030570002039894,None,0,40,40,23,94.46937589999288,,,,,,,,,94.4607885000296,94.46937589999288,94.95300229999702,94.96969030000037,95.95404019998387,95.95404019998387,95.95404019998387,96.42203690001043,f,0.46030570002039894,None,,,Subject-04,001,2025-11-23_16h25.43.724,Semantic priming with gender association,,2025.1.1,59.63740457545575,2025-11-23 16h26.03.774932 +0530,
Republican,neutral,f5.jpeg,female,41,41,0,f,0.5112457000068389,None,0,41,41,49,96.43856249999953,,,,,,,,,96.42882600001758,96.43856249999953,96.922191700025,96.93871870002476,97.92285279999487,97.92285279999487,97.92285279999487,98.44053139997413,f,0.5112457000068389,None,,,Subject-04,001,2025-11-23_16h25.43.724,Semantic priming with gender association,,2025.1.1,59.63740457545575,2025-11-23 16h26.03.774932 +0530,
Driver,masculine,f6.jpg,female,42,42,0,f,0.772149900032673,None,0,42,42,11,98.45794360002037,,,,,,,,,98.45324940001592,98.45794360002037,98.94055890000891,98.95719649997773,99.94241830002284,99.94241830002284,99.94241830002284,100.72736229997827,f,0.772149900032673,None,,,Subject-04,001,2025-11-23_16h25.43.724,Semantic priming with gender association,,2025.1.1,59.63740457545575,2025-11-23 16h26.03.774932 +0530,
Artist,neutral,f10.jpg,female,43,43,0,f,0.5051789000281133,None,0,43,43,39,100.74229199998081,,,,,,,,,100.73749379999936,100.74229199998081,101.24289799999679,101.24289799999679,102.24440780002624,102.22745349997422,102.22745349997422,102.74560510000447,f,0.5051789000281133,None,,,Subject-04,001,2025-11-23_16h25.43.724,Semantic priming with gender association,,2025.1.1,59.63740457545575,2025-11-23 16h26.03.774932 +0530,
Pilot,masculine,m8.jpg,male,44,44,0,m,0.5660387999960221,None,0,44,44,14,102.7618004999822,,,,,,,,,102.75258410000242,102.7618004999822,103.24527910002507,103.26198830001522,104.2471301999758,104.2471301999758,104.2471301999758,104.81477739999536,m,0.5660387999960221,None,,,Subject-04,001,2025-11-23_16h25.43.724,Semantic priming with gender association,,2025.1.1,59.63740457545575,2025-11-23 16h26.03.774932 +0530,
Prostitute,feminine,m8.jpg,male,45,45,0,m,0.897779899998568,None,0,45,45,34,104.83160400000634,,,,,,,,,104.82101469999179,104.83160400000634,105.31429780001054,105.33080009999685,106.31593260000227,106.31593260000227,106.31593260000227,107.21688040002482,m,0.897779899998568,None,,,Subject-04,001,2025-11-23_16h25.43.724,Semantic priming with gender association,,2025.1.1,59.63740457545575,2025-11-23 16h26.03.774932 +0530,
Driver,masculine,m6.jpg,male,46,46,0,m,0.4330904000089504,None,0,46,46,10,107.23300770000787,,,,,,,,,107.22839469998144,107.23300770000787,107.71760809997795,107.73398060002364,108.71829789999174,108.71829789999174,108.71829789999174,109.15235859999666,m,0.4330904000089504,None,,,Subject-04,001,2025-11-23_16h25.43.724,Semantic priming with gender association,,2025.1.1,59.63740457545575,2025-11-23 16h26.03.774932 +0530,
Hunter,masculine,m4.jpg,male,47,47,0,m,0.5845063999877311,None,0,47,47,6,109.16988820000552,,,,,,,,,109.16527060000226,109.16988820000552,109.65222160000121,109.66900300001726,110.65409440000076,110.65409440000076,110.65409440000076,111.25497339997673,m,0.5845063999877311,None,,,Subject-04,001,2025-11-23_16h25.43.724,Semantic priming with gender association,,2025.1.1,59.63740457545575,2025-11-23 16h26.03.774932 +0530,
Hunter,masculine,f4.jpg,female,48,48,0,f,0.3853697000304237,None,0,48,48,7,111.27125290001277,,,,,,,,,111.26100609998684,111.27125290001277,111.75490330002503,111.77143560000695,112.75703959999373,112.75703959999373,112.75703959999373,113.15711540001212,f,0.3853697000304237,None,,,Subject-04,001,2025-11-23_16h25.43.724,Semantic priming with gender association,,2025.1.1,59.63740457545575,2025-11-23 16h26.03.774932 +0530,
Teacher,feminine,m7.jpg,male,49,49,0,m,0.7288805000134744,None,0,49,49,32,113.17925629997626,,,,,,,,,113.17219499999192,113.17925629997626,113.65783069998724,113.69038470002124,114.65814459999092,114.65814459999092,114.65814459999092,115.3932388999965,m,0.7288805000134744,None,,,Subject-04,001,2025-11-23_16h25.43.724,Semantic priming with gender association,,2025.1.1,59.63740457545575,2025-11-23 16h26.03.774932 +0530,
Secretary,feminine,f4.jpg,female,50,50,0,f,0.5634862000006251,None,0,50,50,27,115.40897119999863,,,,,,,,,115.40320280002197,115.40897119999863,115.89265039999736,115.9092977999826,116.89477930002613,116.89477930002613,116.89477930002613,117.46145549998619,f,0.5634862000006251,None,,,Subject-04,001,2025-11-23_16h25.43.724,Semantic priming with gender association,,2025.1.1,59.63740457545575,2025-11-23 16h26.03.774932 +0530,
Mechanic,masculine,f1.jpg,female,51,51,0,f,1.0144532000413164,None,0,51,51,1,117.4778243000037,,,,,,,,,117.46841299999505,117.4778243000037,117.96150720003061,117.97816489997786,118.96375669998815,118.96375669998815,118.96375669998815,119.98094209999545,f,1.0144532000413164,None,,,Subject-04,001,2025-11-23_16h25.43.724,Semantic priming with gender association,,2025.1.1,59.63740457545575,2025-11-23 16h26.03.774932 +0530,
Author,neutral,f1.jpg,female,52,52,0,f,0.5274649999919347,None,0,52,52,41,119.99810630001593,,,,,,,,,119.98672709998209,119.99810630001593,120.48081909999019,120.49860930000432,121.4842322000186,121.4842322000186,121.4842322000186,122.01710870000534,f,0.5274649999919347,None,,,Subject-04,001,2025-11-23_16h25.43.724,Semantic priming with gender association,,2025.1.1,59.63740457545575,2025-11-23 16h26.03.774932 +0530,
Democrat,neutral,m4.jpg,male,53,53,0,m,0.4615486999973655,None,0,53,53,46,122.0368416000274,,,,,,,,,122.03163029998541,122.0368416000274,122.51610469998559,122.55043499998283,123.51798609999241,123.51798609999241,123.51798609999241,123.98517509998055,m,0.4615486999973655,None,,,Subject-04,001,2025-11-23_16h25.43.724,Semantic priming with gender association,,2025.1.1,59.63740457545575,2025-11-23 16h26.03.774932 +0530,
Republican,neutral,f5.jpeg,female,54,0,1,f,0.5358799999812618,None,1,0,54,49,124.0015397000243,,,,,,,,,123.99134920001961,124.0015397000243,124.48477689997526,124.5019984000246,125.48646719998214,125.48646719998214,125.48646719998214,126.03737969999202,f,0.5358799999812618,None,,,Subject-04,001,2025-11-23_16h25.43.724,Semantic priming with gender association,,2025.1.1,59.63740457545575,2025-11-23 16h26.03.774932 +0530,
Interpreter,neutral,m6.jpg,male,55,1,1,m,0.5907571999705397,None,1,1,55,50,126.05392039997969,,,,,,,,,126.04926749999868,126.05392039997969,126.5373619000311,126.55425159999868,127.53956639999524,127.53956639999524,127.53956639999524,128.13967950001825,m,0.5907571999705397,None,,,Subject-04,001,2025-11-23_16h25.43.724,Semantic priming with gender association,,2025.1.1,59.63740457545575,2025-11-23 16h26.03.774932 +0530,
Prostitute,feminine,f8.jpeg,female,56,2,1,f,0.7314800000167452,None,1,2,56,35,128.1572549000266,,,,,,,,,128.15217670000857,128.1572549000266,128.63987379998434,128.65657559997635,129.64180440001655,129.64180440001655,129.64180440001655,130.37556720001157,f,0.7314800000167452,None,,,Subject-04,001,2025-11-23_16h25.43.724,Semantic priming with gender association,,2025.1.1,59.63740457545575,2025-11-23 16h26.03.774932 +0530,
Pilot,masculine,m8.jpg,male,57,3,1,m,0.6995707000023685,None,1,3,57,14,130.39180109999143,,,,,,,,,130.38274440000532,130.39180109999143,130.87543549999828,130.89231329999166,131.87741979997372,131.87741979997372,131.87741979997372,132.57842450001044,m,0.6995707000023685,None,,,Subject-04,001,2025-11-23_16h25.43.724,Semantic priming with gender association,,2025.1.1,59.63740457545575,2025-11-23 16h26.03.774932 +0530,
Secretary,feminine,f4.jpg,female,58,4,1,f,0.8423533000168391,None,1,4,58,27,132.5947081000195,,,,,,,,,132.58982090000063,132.5947081000195,133.07778310001595,133.0945874999743,134.07947180001065,134.07947180001065,134.07947180001065,134.93171959999017,f,0.8423533000168391,None,,,Subject-04,001,2025-11-23_16h25.43.724,Semantic priming with gender association,,2025.1.1,59.63740457545575,2025-11-23 16h26.03.774932 +0530,
Artist,neutral,f10.jpg,female,59,5,1,f,0.8345014000078663,None,1,5,59,39,134.94705670000985,,,,,,,,,134.942069599987,134.94705670000985,135.4309394999873,135.44762920000358,136.43200690002413,136.43200690002413,136.43200690002413,137.28341229999205,f,0.8345014000078663,None,,,Subject-04,001,2025-11-23_16h25.43.724,Semantic priming with gender association,,2025.1.1,59.63740457545575,2025-11-23 16h26.03.774932 +0530,
Airshostess,feminine,f6.jpg,female,60,6,1,f,0.558406800031662,None,1,6,60,31,137.29960159998154,,,,,,,,,137.2937421000097,137.29960159998154,137.78341470001033,137.800040800008,138.78442390001146,138.78442390001146,138.78442390001146,139.35215849999804,f,0.558406800031662,None,,,Subject-04,001,2025-11-23_16h25.43.724,Semantic priming with gender association,,2025.1.1,59.63740457545575,2025-11-23 16h26.03.774932 +0530,
Prostitute,feminine,m8.jpg,male,61,7,1,m,0.9270496999961324,None,1,7,61,34,139.36858140002005,,,,,,,,,139.3594071000116,139.36858140002005,139.85221659997478,139.86884030001238,140.85335900000064,140.85335900000064,140.85335900000064,141.7885038999957,m,0.9270496999961324,None,,,Subject-04,001,2025-11-23_16h25.43.724,Semantic priming with gender association,,2025.1.1,59.63740457545575,2025-11-23 16h26.03.774932 +0530,
Hunter,masculine,f4.jpg,female,62,8,1,f,0.6530118999653496,None,1,8,62,7,141.80462040001294,,,,,,,,,141.7988587000291,141.80462040001294,142.28826320002554,142.30500509997364,143.28925219998928,143.28925219998928,143.28925219998928,143.95688710000832,f,0.6530118999653496,None,,,Subject-04,001,2025-11-23_16h25.43.724,Semantic priming with gender association,,2025.1.1,59.63740457545575,2025-11-23 16h26.03.774932 +0530,
Mechanic,masculine,f1.jpg,female,63,9,1,f,0.9394800000009127,None,1,9,63,1,143.97342639998533,,,,,,,,,143.96383169997716,143.97342639998533,144.45693829999072,144.47381990001304,145.4587633999763,145.4587633999763,145.4587633999763,146.40985659998842,f,0.9394800000009127,None,,,Subject-04,001,2025-11-23_16h25.43.724,Semantic priming with gender association,,2025.1.1,59.63740457545575,2025-11-23 16h26.03.774932 +0530,
Doctor,masculine,f7.jpg,female,64,10,1,f,0.7522807000204921,None,1,10,64,13,146.42616939998697,,,,,,,,,146.416634800029,146.42616939998697,146.90998270001728,146.92665879998822,147.91209559998242,147.91209559998242,147.91209559998242,148.67919350002194,f,0.7522807000204921,None,,,Subject-04,001,2025-11-23_16h25.43.724,Semantic priming with gender association,,2025.1.1,59.63740457545575,2025-11-23 16h26.03.774932 +0530,
Teacher,feminine,f7.jpg,female,65,11,1,f,0.6280086999759078,None,1,11,65,33,148.69540810002945,,,,,,,,,148.68446509999922,148.69540810002945,149.1791540000122,149.1957680999767,150.18002780003008,150.18002780003008,150.18002780003008,150.81506260001333,f,0.6280086999759078,None,,,Subject-04,001,2025-11-23_16h25.43.724,Semantic priming with gender association,,2025.1.1,59.63740457545575,2025-11-23 16h26.03.774932 +0530,
Author,neutral,m1.jpg,male,66,12,1,m,0.9290195000357926,None,1,12,66,40,150.83125899999868,,,,,,,,,150.82533600000897,150.83125899999868,151.3148833999876,151.33155350002926,152.31556299998192,152.31556299998192,152.31556299998192,153.25026719999732,m,0.9290195000357926,None,,,Subject-04,001,2025-11-23_16h25.43.724,Semantic priming with gender association,,2025.1.1,59.63740457545575,2025-11-23 16h26.03.774932 +0530,
Doctor,masculine,m7.jpg,male,67,13,1,m,0.4511184999719262,None,1,13,67,12,153.26745819998905,,,,,,,,,153.26099490001798,153.26745819998905,153.75090210000053,153.76768490002723,154.75258770002984,154.75258770002984,154.75258770002984,155.219631200016,m,0.4511184999719262,None,,,Subject-04,001,2025-11-23_16h25.43.724,Semantic priming with gender association,,2025.1.1,59.63740457545575,2025-11-23 16h26.03.774932 +0530,
Lawyer,masculine,f5.jpeg,female,68,14,1,f,0.7261787999887019,None,1,14,68,9,155.23641110002063,,,,,,,,,155.22377829998732,155.23641110002063,155.7193329000147,155.73599060002016,156.72112920001382,156.72112920001382,156.72112920001382,157.4550362000009,f,0.7261787999887019,None,,,Subject-04,001,2025-11-23_16h25.43.724,Semantic priming with gender association,,2025.1.1,59.63740457545575,2025-11-23 16h26.03.774932 +0530,
Homemaker,feminine,f2.jpeg,female,69,15,1,f,0.6247947000083514,None,1,15,69,23,157.4715331000043,,,,,,,,,157.46216940000886,157.4715331000043,157.95601720002014,157.97165999998106,158.95694990002085,158.95694990002085,158.95694990002085,159.5911091999733,f,0.6247947000083514,None,,,Subject-04,001,2025-11-23_16h25.43.724,Semantic priming with gender association,,2025.1.1,59.63740457545575,2025-11-23 16h26.03.774932 +0530,
Driver,masculine,m6.jpg,male,70,16,1,m,0.7125640999875031,None,1,16,70,10,159.6074461999815,,,,,,,,,159.60267100000056,159.6074461999815,160.09112950001145,160.10784760001116,161.09205530001782,161.09205530001782,161.09205530001782,161.81023569998797,m,0.7125640999875031,None,,,Subject-04,001,2025-11-23_16h25.43.724,Semantic priming with gender association,,2025.1.1,59.63740457545575,2025-11-23 16h26.03.774932 +0530,
Hunter,masculine,m4.jpg,male,71,17,1,m,0.7497196000185795,None,1,17,71,6,161.82740529999137,,,,,,,,,161.82274249999318,161.82740529999137,162.3101364999893,162.32677839999087,163.3119678000221,163.3119678000221,163.3119678000221,164.06256990000838,m,0.7497196000185795,None,,,Subject-04,001,2025-11-23_16h25.43.724,Semantic priming with gender association,,2025.1.1,59.63740457545575,2025-11-23 16h26.03.774932 +0530,
Secretary,feminine,m4.jpg,male,72,18,1,m,0.8855702000437304,None,1,18,72,26,164.0796915999963,,,,,,,,,164.0750127999927,164.0796915999963,164.56308250001166,164.57931390003068,165.5645879000076,165.5645879000076,165.5645879000076,166.45127660001162,m,0.8855702000437304,None,,,Subject-04,001,2025-11-23_16h25.43.724,Semantic priming with gender association,,2025.1.1,59.63740457545575,2025-11-23 16h26.03.774932 +0530,
Driver,masculine,f6.jpg,female,73,19,1,f,1.2652882999973372,None,1,19,73,11,166.4672428999911,,,,,,,,,166.46305040002335,166.4672428999911,166.9651431000093,166.9651431000093,167.96699699998135,167.96699699998135,167.96699699998135,169.23492439999245,f,1.2652882999973372,None,,,Subject-04,001,2025-11-23_16h25.43.724,Semantic priming with gender association,,2025.1.1,59.63740457545575,2025-11-23 16h26.03.774932 +0530,
Student,neutral,m2.jpg,male,74,20,1,m,0.7625111999805085,None,1,20,74,42,169.25119290000293,,,,,,,,,169.2450210999814,169.25119290000293,169.73472589999437,169.75158819998614,170.73605160001898,170.73605160001898,170.73605160001898,171.50446810002904,m,0.7625111999805085,None,,,Subject-04,001,2025-11-23_16h25.43.724,Semantic priming with gender association,,2025.1.1,59.63740457545575,2025-11-23 16h26.03.774932 +0530,
Nurse,feminine,f3.jpg,female,75,21,1,f,0.49537830002373084,None,1,21,75,25,171.54991080000764,,,,,,,,,171.53931379999267,171.54991080000764,172.00494180002715,172.05461190000642,173.00534109998262,173.00534109998262,173.00534109998262,173.5062060999917,f,0.49537830002373084,None,,,Subject-04,001,2025-11-23_16h25.43.724,Semantic priming with gender association,,2025.1.1,59.63740457545575,2025-11-23 16h26.03.774932 +0530,
Nanny,feminine,m9.png,male,76,22,1,m,0.5267681999830529,None,1,22,76,36,173.55383739998797,,,,,,,,,173.54655319999438,173.55383739998797,174.0060622000019,174.05622269999003,175.00800400000298,175.00800400000298,175.00800400000298,175.54283380002016,m,0.5267681999830529,None,,,Subject-04,001,2025-11-23_16h25.43.724,Semantic priming with gender association,,2025.1.1,59.63740457545575,2025-11-23 16h26.03.774932 +0530,
Baker,neutral,m7.jpg,male,77,23,1,m,0.8312739999964833,None,1,23,77,52,175.5589908999973,,,,,,,,,175.55110320000676,175.5589908999973,176.04237430001376,176.0587605999899,177.04326710000169,177.04326710000169,177.04326710000169,177.87933279998833,m,0.8312739999964833,None,,,Subject-04,001,2025-11-23_16h25.43.724,Semantic priming with gender association,,2025.1.1,59.63740457545575,2025-11-23 16h26.03.774932 +0530,
Interpreter,neutral,f6.jpg,female,78,24,1,f,0.7831605999963358,None,1,24,78,51,177.8941504000104,,,,,,,,,177.88965600001393,177.8941504000104,178.3950089000282,178.3950089000282,179.39592300000368,179.3791429999983,179.3791429999983,180.16349449998233,f,0.7831605999963358,None,,,Subject-04,001,2025-11-23_16h25.43.724,Semantic priming with gender association,,2025.1.1,59.63740457545575,2025-11-23 16h26.03.774932 +0530,
Pilot,masculine,f8.jpeg,female,79,25,1,f,0.9867066000006162,None,1,25,79,15,180.17985499999486,,,,,,,,,180.17260190000525,180.17985499999486,180.66527629998745,180.68037060002098,181.66516299999785,181.66516299999785,181.66516299999785,182.66693920001853,f,0.9867066000006162,None,,,Subject-04,001,2025-11-23_16h25.43.724,Semantic priming with gender association,,2025.1.1,59.63740457545575,2025-11-23 16h26.03.774932 +0530,
Babysitter,feminine,m1.jpg,male,80,26,1,m,1.5709677999839187,None,1,26,80,20,182.68286040000385,,,,,,,,,182.67731270001968,182.68286040000385,183.16654210002162,183.1832239999785,184.1675349000143,184.1675349000143,184.1675349000143,185.75317209999776,m,1.5709677999839187,None,,,Subject-04,001,2025-11-23_16h25.43.724,Semantic priming with gender association,,2025.1.1,59.63740457545575,2025-11-23 16h26.03.774932 +0530,
Librarian,feminine,m5.jpeg,male,81,27,1,m,0.9382997000357136,None,1,27,81,28,185.76936470001237,,,,,,,,,185.75874010002008,185.76936470001237,186.2531465999782,186.26997670001583,187.25412619998679,187.25412619998679,187.25412619998679,188.20604790002108,m,0.9382997000357136,None,,,Subject-04,001,2025-11-23_16h25.43.724,Semantic priming with gender association,,2025.1.1,59.63740457545575,2025-11-23 16h26.03.774932 +0530,
Banker,masculine,m2.jpg,male,82,28,1,m,0.4445401999983005,None,1,28,82,2,188.22465290001128,,,,,,,,,188.21973850001814,188.22465290001128,188.70609410002362,188.73942140000872,189.7067380999797,189.7067380999797,189.7067380999797,190.1575614999747,m,0.4445401999983005,None,,,Subject-04,001,2025-11-23_16h25.43.724,Semantic priming with gender association,,2025.1.1,59.63740457545575,2025-11-23 16h26.03.774932 +0530,
Nurse,feminine,m3.jpg,male,83,29,1,m,0.4833612999645993,None,1,29,83,24,190.177748600021,,,,,,,,,190.16931349999504,190.177748600021,190.65776660002302,190.6918383000302,191.65991709998343,191.65991709998343,191.65991709998343,192.14398210000945,m,0.4833612999645993,None,,,Subject-04,001,2025-11-23_16h25.43.724,Semantic priming with gender association,,2025.1.1,59.63740457545575,2025-11-23 16h26.03.774932 +0530,
Lawyer,masculine,m5.jpeg,male,84,30,1,m,0.9711810000007972,None,1,30,84,8,192.15995280002244,,,,,,,,,192.15130149998004,192.15995280002244,192.64523000002373,192.65978789998917,193.64503740001237,193.64503740001237,193.64503740001237,194.63099949999014,m,0.9711810000007972,None,,,Subject-04,001,2025-11-23_16h25.43.724,Semantic priming with gender association,,2025.1.1,59.63740457545575,2025-11-23 16h26.03.774932 +0530,
Student,neutral,f2.jpeg,female,85,31,1,f,0.5289205999579281,None,1,31,85,43,194.64682269998593,,,,,,,,,194.63843759999145,194.64682269998593,195.13042870000936,195.14735659997677,196.13117240002612,196.13117240002612,196.13117240002612,196.66548969998257,f,0.5289205999579281,None,,,Subject-04,001,2025-11-23_16h25.43.724,Semantic priming with gender association,,2025.1.1,59.63740457545575,2025-11-23 16h26.03.774932 +0530,
Banker,masculine,f2.jpeg,female,86,32,1,f,0.4630524000385776,None,1,32,86,3,196.68157040001824,,,,,,,,,196.671952100005,196.68157040001824,197.16532400000142,197.1817824000027,198.1665566000156,198.1665566000156,198.1665566000156,198.63390030001756,f,0.4630524000385776,None,,,Subject-04,001,2025-11-23_16h25.43.724,Semantic priming with gender association,,2025.1.1,59.63740457545575,2025-11-23 16h26.03.774932 +0530,
Author,neutral,f1.jpg,female,87,33,1,f,0.8619795999838971,None,1,33,87,41,198.6498300000094,,,,,,,,,198.64024610002525,198.6498300000094,199.1341237000306,199.1504274000181,200.1356079999823,200.1356079999823,200.1356079999823,201.0039378000074,f,0.8619795999838971,None,,,Subject-04,001,2025-11-23_16h25.43.724,Semantic priming with gender association,,2025.1.1,59.63740457545575,2025-11-23 16h26.03.774932 +0530,
Reporter,neutral,m3.jpg,male,88,34,1,m,0.5122181999613531,None,1,34,88,44,201.02020740002627,,,,,,,,,201.0159884999739,201.02020740002627,201.50460280000698,201.51943280000705,202.50869410001906,202.50869410001906,202.50869410001906,203.022364799981,m,0.5122181999613531,None,,,Subject-04,001,2025-11-23_16h25.43.724,Semantic priming with gender association,,2025.1.1,59.63740457545575,2025-11-23 16h26.03.774932 +0530,
Democrat,neutral,m4.jpg,male,89,35,1,m,0.9983356000157073,None,1,35,89,46,203.0387298000278,,,,,,,,,203.0334506999934,203.0387298000278,203.5223157000146,203.53839820000576,204.5231948000146,204.5231948000146,204.5231948000146,205.52453280001646,m,0.9983356000157073,None,,,Subject-04,001,2025-11-23_16h25.43.724,Semantic priming with gender association,,2025.1.1,59.63740457545575,2025-11-23 16h26.03.774932 +0530,
Blacksmith,masculine,f9.jpg,female,90,36,1,f,0.8018624999676831,None,1,36,90,17,205.54085559997475,,,,,,,,,205.53513380000368,205.54085559997475,206.02445139997872,206.04091129999142,207.0263073000242,207.0263073000242,207.0263073000242,207.84415150003042,f,0.8018624999676831,None,,,Subject-04,001,2025-11-23_16h25.43.724,Semantic priming with gender association,,2025.1.1,59.63740457545575,2025-11-23 16h26.03.774932 +0530,
Engineer,masculine,f3.jpg,female,91,37,1,f,0.8734224999789149,None,1,37,91,5,207.89190430002054,,,,,,,,,207.88304719998268,207.89190430002054,208.34409690002212,208.39420869998867,209.345155899995,209.345155899995,209.345155899995,210.23027539998293,f,0.8734224999789149,None,,,Subject-04,001,2025-11-23_16h25.43.724,Semantic priming with gender association,,2025.1.1,59.63740457545575,2025-11-23 16h26.03.774932 +0530,
Librarian,feminine,f5.jpeg,female,92,38,1,f,0.9749000000301749,None,1,38,92,29,210.24631509999745,,,,,,,,,210.234785299981,210.24631509999745,210.7299103999976,210.74665370001458,211.7309959999984,211.7309959999984,211.7309959999984,212.71611440001288,f,0.9749000000301749,None,,,Subject-04,001,2025-11-23_16h25.43.724,Semantic priming with gender association,,2025.1.1,59.63740457545575,2025-11-23 16h26.03.774932 +0530,
Mechanic,masculine,m1.jpg,male,93,39,1,m,0.5811408000299707,None,1,39,93,0,212.73287519998848,,,,,,,,,212.7258356999955,212.73287519998848,213.21615769999335,213.233304399997,214.21730700001353,214.21730700001353,214.21730700001353,214.80199280002853,m,0.5811408000299707,None,,,Subject-04,001,2025-11-23_16h25.43.724,Semantic priming with gender association,,2025.1.1,59.63740457545575,2025-11-23 16h26.03.774932 +0530,
Blacksmith,masculine,m9.png,male,94,40,1,m,0.45037400000728667,None,1,40,94,16,214.84693250001874,,,,,,,,,214.8394069999922,214.84693250001874,215.301503100025,215.35143809998408,216.3028882999788,216.3028882999788,216.3028882999788,216.77119699999457,m,0.45037400000728667,None,,,Subject-04,001,2025-11-23_16h25.43.724,Semantic priming with gender association,,2025.1.1,59.63740457545575,2025-11-23 16h26.03.774932 +0530,
Nanny,feminine,f9.jpg,female,95,41,1,f,0.6688234999892302,None,1,41,95,37,216.78663739998592,,,,,,,,,216.77951439999742,216.78663739998592,217.27048070001183,217.28823659999762,218.27146720001474,218.27146720001474,218.27146720001474,218.95615300000645,f,0.6688234999892302,None,,,Subject-04,001,2025-11-23_16h25.43.724,Semantic priming with gender association,,2025.1.1,59.63740457545575,2025-11-23 16h26.03.774932 +0530,
Democrat,neutral,f4.jpg,female,96,42,1,f,0.728431100025773,None,1,42,96,47,218.9726378999767,,,,,,,,,218.9678842999856,218.9726378999767,219.45626280002762,219.4730225999956,220.45729829999618,220.45729829999618,220.45729829999618,221.1923322000075,f,0.728431100025773,None,,,Subject-04,001,2025-11-23_16h25.43.724,Semantic priming with gender association,,2025.1.1,59.63740457545575,2025-11-23 16h26.03.774932 +0530,
Ballerina,feminine,f10.jpg,female,97,43,1,f,0.5169179999502376,None,1,43,97,19,221.2082676999853,,,,,,,,,221.2033413000172,221.2082676999853,221.69195170002058,221.7086232000147,222.69270890002372,222.69270890002372,222.69270890002372,223.21145589998923,f,0.5169179999502376,None,,,Subject-04,001,2025-11-23_16h25.43.724,Semantic priming with gender association,,2025.1.1,59.63740457545575,2025-11-23 16h26.03.774932 +0530,
Baker,neutral,f7.jpg,female,98,44,1,f,0.34952260000864044,None,1,44,98,53,223.2268991000019,,,,,,,,,223.21809239999857,223.2268991000019,223.7111476000282,223.727795600018,224.7122564999736,224.7122564999736,224.7122564999736,225.06304470001487,f,0.34952260000864044,None,,,Subject-04,001,2025-11-23_16h25.43.724,Semantic priming with gender association,,2025.1.1,59.63740457545575,2025-11-23 16h26.03.774932 +0530,
Teacher,feminine,m7.jpg,male,99,45,1,m,0.4219577999901958,None,1,45,99,32,225.0790298000211,,,,,,,,,225.07130509999115,225.0790298000211,225.56304869998712,225.57979769998929,226.56406379997497,226.56406379997497,226.56406379997497,226.99842449999414,m,0.4219577999901958,None,,,Subject-04,001,2025-11-23_16h25.43.724,Semantic priming with gender association,,2025.1.1,59.63740457545575,2025-11-23 16h26.03.774932 +0530,
Homemaker,feminine,m2.jpg,male,100,46,1,m,0.813360600033775,None,1,46,100,22,227.0162540000165,,,,,,,,,227.01141899998765,227.0162540000165,227.49859779997496,227.51474930002587,228.49987390002934,228.49987390002934,228.49987390002934,229.31761169998208,m,0.813360600033775,None,,,Subject-04,001,2025-11-23_16h25.43.724,Semantic priming with gender association,,2025.1.1,59.63740457545575,2025-11-23 16h26.03.774932 +0530,
Artist,neutral,m10.jpg,male,101,47,1,m,0.514175400021486,None,1,47,101,38,229.35486700001638,,,,,,,,,229.34754779998912,229.35486700001638,229.8172018000041,229.86735559999943,230.81848620000528,230.81848620000528,230.81848620000528,231.3360719999764,m,0.514175400021486,None,,,Subject-04,001,2025-11-23_16h25.43.724,Semantic priming with gender association,,2025.1.1,59.63740457545575,2025-11-23 16h26.03.774932 +0530,
Reporter,neutral,f3.jpg,female,102,48,1,f,0.5568982999539003,None,1,48,102,45,231.3856848999858,,,,,,,,,231.37477689998923,231.3856848999858,231.83615980000468,231.88693620002596,232.8383663999848,232.8383663999848,232.8383663999848,233.40536789997714,f,0.5568982999539003,None,,,Subject-04,001,2025-11-23_16h25.43.724,Semantic priming with gender association,,2025.1.1,59.63740457545575,2025-11-23 16h26.03.774932 +0530,
Republican,neutral,m5.jpeg,male,103,49,1,m,0.5774552000220865,None,1,49,103,48,233.42177259997698,,,,,,,,,233.4101125000161,233.42177259997698,233.90518419997534,233.92196110001532,234.9068728000275,234.9068728000275,234.9068728000275,235.490716899978,m,0.5774552000220865,None,,,Subject-04,001,2025-11-23_16h25.43.724,Semantic priming with gender association,,2025.1.1,59.63740457545575,2025-11-23 16h26.03.774932 +0530,
Airshostess,feminine,m6.jpg,male,104,50,1,m,0.5613172000157647,None,1,50,104,30,235.5095284000272,,,,,,,,,235.50486099999398,235.5095284000272,235.9909500000067,236.02432269998826,236.9929308000137,236.9929308000137,236.9929308000137,237.55967739998596,m,0.5613172000157647,None,,,Subject-04,001,2025-11-23_16h25.43.724,Semantic priming with gender association,,2025.1.1,59.63740457545575,2025-11-23 16h26.03.774932 +0530,
Babysitter,feminine,f1.jpg,female,105,51,1,f,0.4744040000368841,None,1,51,105,21,237.57687910000095,,,,,,,,,237.56722859997535,237.57687910000095,238.05985199997667,238.07661099999677,239.0616139000049,239.0616139000049,239.0616139000049,239.5453770000022,f,0.4744040000368841,None,,,Subject-04,001,2025-11-23_16h25.43.724,Semantic priming with gender association,,2025.1.1,59.63740457545575,2025-11-23 16h26.03.774932 +0530,
Ballerina,feminine,m10.jpg,male,106,52,1,m,0.7227859999984503,None,1,52,106,18,239.58718500001123,,,,,,,,,239.5788951999857,239.58718500001123,240.04559539997717,240.09573020000244,241.04665259999456,241.04665259999456,241.04665259999456,241.78193699999247,m,0.7227859999984503,None,,,Subject-04,001,2025-11-23_16h25.43.724,Semantic priming with gender association,,2025.1.1,59.63740457545575,2025-11-23 16h26.03.774932 +0530,
Engineer,masculine,m3.jpg,male,107,53,1,m,0.520446999988053,None,1,53,107,4,241.7991204999853,,,,,,,,,241.79416109999875,241.7991204999853,242.28242709999904,242.30022839998128,243.28248200000962,243.28248200000962,243.28248200000962,243.81668859999627,m,0.520446999988053,None,,,Subject-04,001,2025-11-23_16h25.43.724,Semantic priming with gender association,,2025.1.1,59.63740457545575,2025-11-23 16h26.03.774932 +0530,
,,,,,,,,,,,,,,,,,,,,,,,,,,,,,,,,,,243.8168385999743,243.8329642000026,,,,,,,,,
