prime_word,prime_gender,target_image,target_gender,thisN,thisTrialN,thisRepN,key_resp.keys,key_resp.rt,key_resp.duration,trials.thisRepN,trials.thisTrialN,trials.thisN,trials.thisIndex,thisRow.t,notes,Instructions.started,text_2.started,key_resp_2.started,Instructions.stopped,key_resp_2.keys,key_resp_2.rt,key_resp_2.duration,trial.started,fixation.started,prime.started,fixation.stopped,prime.stopped,target_picture.started,key_resp.started,trial.stopped,trials.key_resp.keys,trials.key_resp.rt,trials.key_resp.duration,Thankyou.started,text.started,participant,session,date,expName,expVersion,psychopyVersion,frameRate,expStart,
,,,,,,,,,,,,,,,,0.003623099997639656,0.014103199995588511,0.014103199995588511,2.757797099999152,space,2.5710088000050746,None,,,,,,,,,,,,,,Subject_05,001,2025-11-24_01h04.43.868,Semantic priming with gender association,,2025.1.1,59.79652438979735,2025-11-24 01h08.57.373370 +0530,
Librarian,feminine,f5.jpeg,female,0,0,0,f,0.9201350000221282,None,0,0,0,29,2.8073030000086874,,,,,,,,,2.8016197999822907,2.8073030000086874,3.2678902000188828,3.3182265000068583,4.2680942000006326,4.2680942000006326,4.2680942000006326,5.203576600004453,f,0.9201350000221282,None,,,Subject_05,001,2025-11-24_01h04.43.868,Semantic priming with gender association,,2025.1.1,59.79652438979735,2025-11-24 01h08.57.373370 +0530,
Blacksmith,masculine,m9.png,male,1,1,0,m,0.45497570000588894,None,0,1,1,16,5.274121999973431,,,,,,,,,5.266767899971455,5.274121999973431,5.703430800000206,5.786966999992728,6.705193099973258,6.705193099973258,6.705193099973258,7.173379499989096,m,0.45497570000588894,None,,,Subject_05,001,2025-11-24_01h04.43.868,Semantic priming with gender association,,2025.1.1,59.79652438979735,2025-11-24 01h08.57.373370 +0530,
Blacksmith,masculine,f9.jpg,female,2,2,0,f,0.8725627000094391,None,0,2,2,17,7.197922600025777,,,,,,,,,7.192420199979097,7.197922600025777,7.68928579997737,7.706023000006098,8.690155200019944,8.673393499979284,8.673393499979284,9.558772300020792,f,0.8725627000094391,None,,,Subject_05,001,2025-11-24_01h04.43.868,Semantic priming with gender association,,2025.1.1,59.79652438979735,2025-11-24 01h08.57.373370 +0530,
Doctor,masculine,m7.jpg,male,3,3,0,m,0.41787380003370345,None,0,3,3,12,9.588850800006185,,,,,,,,,9.584103500004858,9.588850800006185,10.059030100004748,10.091658600023948,11.059861499990802,11.059861499990802,11.059861499990802,11.493756200012285,m,0.41787380003370345,None,,,Subject_05,001,2025-11-24_01h04.43.868,Semantic priming with gender association,,2025.1.1,59.79652438979735,2025-11-24 01h08.57.373370 +0530,
Babysitter,feminine,m1.jpg,male,4,4,0,f,0.3922899999888614,None,0,4,4,20,11.52218550001271,,,,,,,,,11.517504999996163,11.52218550001271,11.994073599984404,12.027290900005028,12.994950899970718,12.994950899970718,12.994950899970718,13.395941200025845,f,0.3922899999888614,None,,,Subject_05,001,2025-11-24_01h04.43.868,Semantic priming with gender association,,2025.1.1,59.79652438979735,2025-11-24 01h08.57.373370 +0530,
Driver,masculine,m6.jpg,male,5,5,0,m,0.802536399976816,None,0,5,5,10,13.42646639997838,,,,,,,,,13.421637199993711,13.42646639997838,13.895782099978533,13.929268900013994,14.897123700007796,14.897123700007796,14.897123700007796,15.714768000005279,m,0.802536399976816,None,,,Subject_05,001,2025-11-24_01h04.43.868,Semantic priming with gender association,,2025.1.1,59.79652438979735,2025-11-24 01h08.57.373370 +0530,
Engineer,masculine,m3.jpg,male,6,6,0,m,0.5268989999894984,None,0,6,6,4,15.744929699983913,,,,,,,,,15.74012319999747,15.744929699983913,16.215262799989432,16.248786200012546,17.216326499998104,17.216326499998104,17.216326499998104,17.750729100022,m,0.5268989999894984,None,,,Subject_05,001,2025-11-24_01h04.43.868,Semantic priming with gender association,,2025.1.1,59.79652438979735,2025-11-24 01h08.57.373370 +0530,
Banker,masculine,f2.jpeg,female,7,7,0,f,0.7823853000300005,None,0,7,7,3,17.773497999995016,,,,,,,,,17.769266000017524,17.773497999995016,18.250715299975127,18.28425010002684,19.251822000020184,19.251822000020184,19.251822000020184,20.03688410000177,f,0.7823853000300005,None,,,Subject_05,001,2025-11-24_01h04.43.868,Semantic priming with gender association,,2025.1.1,59.79652438979735,2025-11-24 01h08.57.373370 +0530,
Democrat,neutral,m4.jpg,male,8,8,0,m,0.49548679997678846,None,0,8,8,46,20.06659960001707,,,,,,,,,20.061772699991707,20.06659960001707,20.53705240000272,20.570531099976506,21.537831599998754,21.537831599998754,21.537831599998754,22.038664899999276,m,0.49548679997678846,None,,,Subject_05,001,2025-11-24_01h04.43.868,Semantic priming with gender association,,2025.1.1,59.79652438979735,2025-11-24 01h08.57.373370 +0530,
Ballerina,feminine,m10.jpg,male,9,9,0,m,0.5012628000113182,None,0,9,9,18,22.085812899982557,,,,,,,,,22.07857180002611,22.085812899982557,22.539103500021156,22.588982700021006,23.53997550002532,23.53997550002532,23.53997550002532,24.058380600006785,m,0.5012628000113182,None,,,Subject_05,001,2025-11-24_01h04.43.868,Semantic priming with gender association,,2025.1.1,59.79652438979735,2025-11-24 01h08.57.373370 +0530,
Driver,masculine,f6.jpg,female,10,10,0,f,0.6874201000318862,None,0,10,10,11,24.084572200023104,,,,,,,,,24.079794500023127,24.084572200023104,24.557822600007057,24.592556299990974,25.559288599994034,25.559288599994034,25.559288599994034,26.260423599975184,f,0.6874201000318862,None,,,Subject_05,001,2025-11-24_01h04.43.868,Semantic priming with gender association,,2025.1.1,59.79652438979735,2025-11-24 01h08.57.373370 +0530,
Interpreter,neutral,f6.jpg,female,11,11,0,f,0.666304400016088,None,0,11,11,51,26.275970400020014,,,,,,,,,26.27124139998341,26.275970400020014,26.760331299970858,26.777168200002052,27.761264099972323,27.761264099972323,27.761264099972323,28.42911919998005,f,0.666304400016088,None,,,Subject_05,001,2025-11-24_01h04.43.868,Semantic priming with gender association,,2025.1.1,59.79652438979735,2025-11-24 01h08.57.373370 +0530,
Lawyer,masculine,f5.jpeg,female,12,12,0,f,0.7515361999976449,None,0,12,12,9,28.446270400017966,,,,,,,,,28.433207500027493,28.446270400017966,28.929436600010376,28.945969499996863,29.93053900002269,29.93053900002269,29.93053900002269,30.698465200024657,f,0.7515361999976449,None,,,Subject_05,001,2025-11-24_01h04.43.868,Semantic priming with gender association,,2025.1.1,59.79652438979735,2025-11-24 01h08.57.373370 +0530,
Nanny,feminine,f9.jpg,female,13,13,0,f,0.6187313999980688,None,0,13,13,37,30.71630600001663,,,,,,,,,30.71204840001883,30.71630600001663,31.198321099975146,31.2318770000129,32.19955159997335,32.19955159997335,32.19955159997335,32.83407649997389,f,0.6187313999980688,None,,,Subject_05,001,2025-11-24_01h04.43.868,Semantic priming with gender association,,2025.1.1,59.79652438979735,2025-11-24 01h08.57.373370 +0530,
Airshostess,feminine,f6.jpg,female,14,14,0,f,0.44355990004260093,None,0,14,14,31,32.850372300017625,,,,,,,,,32.84206689998973,32.850372300017625,33.33444020000752,33.35019349999493,34.335510800010525,34.335510800010525,34.335510800010525,34.78633779997472,f,0.44355990004260093,None,,,Subject_05,001,2025-11-24_01h04.43.868,Semantic priming with gender association,,2025.1.1,59.79652438979735,2025-11-24 01h08.57.373370 +0530,
Republican,neutral,m5.jpeg,male,15,15,0,m,0.5158166000037454,None,0,15,15,48,34.81310919998214,,,,,,,,,34.807656300021335,34.81310919998214,35.28708550002193,35.31966330000432,36.287187699985225,36.287187699985225,36.287187699985225,36.80481930001406,m,0.5158166000037454,None,,,Subject_05,001,2025-11-24_01h04.43.868,Semantic priming with gender association,,2025.1.1,59.79652438979735,2025-11-24 01h08.57.373370 +0530,
Prostitute,feminine,f8.jpeg,female,16,16,0,f,0.4032646000268869,None,0,16,16,35,36.83390010002768,,,,,,,,,36.82842490001349,36.83390010002768,37.30463400000008,37.33887159998994,38.30635259998962,38.30635259998962,38.30635259998962,38.72347049997188,f,0.4032646000268869,None,,,Subject_05,001,2025-11-24_01h04.43.868,Semantic priming with gender association,,2025.1.1,59.79652438979735,2025-11-24 01h08.57.373370 +0530,
Librarian,feminine,m5.jpeg,male,17,17,0,m,0.5423580999486148,None,0,17,17,28,38.73972999997204,,,,,,,,,38.72978499997407,38.73972999997204,39.22409440000774,39.24019759998191,40.22513679997064,40.22513679997064,40.22513679997064,40.77553709998028,m,0.5423580999486148,None,,,Subject_05,001,2025-11-24_01h04.43.868,Semantic priming with gender association,,2025.1.1,59.79652438979735,2025-11-24 01h08.57.373370 +0530,
Democrat,neutral,f4.jpg,female,18,18,0,f,0.6971538999932818,None,0,18,18,47,40.805639199970756,,,,,,,,,40.800533499976154,40.805639199970756,41.2767642000108,41.309379999991506,42.27804509998532,42.27804509998532,42.27804509998532,42.97870159999002,f,0.6971538999932818,None,,,Subject_05,001,2025-11-24_01h04.43.868,Semantic priming with gender association,,2025.1.1,59.79652438979735,2025-11-24 01h08.57.373370 +0530,
Baker,neutral,f7.jpg,female,19,19,0,f,0.914216100005433,None,0,19,19,53,43.00586999999359,,,,,,,,,43.00099869997939,43.00586999999359,43.478696700010914,43.512168999994174,44.47968980000587,44.47968980000587,44.47968980000587,45.39789480000036,f,0.914216100005433,None,,,Subject_05,001,2025-11-24_01h04.43.868,Semantic priming with gender association,,2025.1.1,59.79652438979735,2025-11-24 01h08.57.373370 +0530,
Ballerina,feminine,f10.jpg,female,20,20,0,f,0.686790400010068,None,0,20,20,19,45.42408010002691,,,,,,,,,45.41952340002172,45.42408010002691,45.89774699998088,45.93073740002001,46.89936380001018,46.89936380001018,46.89936380001018,47.60051359998761,f,0.686790400010068,None,,,Subject_05,001,2025-11-24_01h04.43.868,Semantic priming with gender association,,2025.1.1,59.79652438979735,2025-11-24 01h08.57.373370 +0530,
Author,neutral,m1.jpg,male,21,21,0,m,0.8350197999970987,None,0,21,21,40,47.616640600026585,,,,,,,,,47.60960989998421,47.616640600026585,48.10033859999385,48.11718599998858,49.10135040001478,49.10135040001478,49.10135040001478,49.95307859999593,m,0.8350197999970987,None,,,Subject_05,001,2025-11-24_01h04.43.868,Semantic priming with gender association,,2025.1.1,59.79652438979735,2025-11-24 01h08.57.373370 +0530,
Hunter,masculine,f4.jpg,female,22,22,0,f,0.5804107000003569,None,0,22,22,7,49.96908980002627,,,,,,,,,49.96488749998389,49.96908980002627,50.45272699999623,50.46957840002142,51.454491599986795,51.454491599986795,51.454491599986795,52.0382800999796,f,0.5804107000003569,None,,,Subject_05,001,2025-11-24_01h04.43.868,Semantic priming with gender association,,2025.1.1,59.79652438979735,2025-11-24 01h08.57.373370 +0530,
Doctor,masculine,f7.jpg,female,23,23,0,f,0.5596807000110857,None,0,23,23,13,52.054508799978066,,,,,,,,,52.04419869999401,52.054508799978066,52.53842569998233,52.554982399975415,53.5393902999931,53.5393902999931,53.5393902999931,54.107586700003594,f,0.5596807000110857,None,,,Subject_05,001,2025-11-24_01h04.43.868,Semantic priming with gender association,,2025.1.1,59.79652438979735,2025-11-24 01h08.57.373370 +0530,
Secretary,feminine,f4.jpg,female,24,24,0,f,1.0456449000048451,None,0,24,24,27,54.12349339999491,,,,,,,,,54.116550499980804,54.12349339999491,54.607205600012094,54.624203599989414,55.608193000021856,55.608193000021856,55.608193000021856,56.66005100001348,f,1.0456449000048451,None,,,Subject_05,001,2025-11-24_01h04.43.868,Semantic priming with gender association,,2025.1.1,59.79652438979735,2025-11-24 01h08.57.373370 +0530,
Nurse,feminine,m3.jpg,male,25,25,0,m,0.73650890000863,None,0,25,25,24,56.67810020002071,,,,,,,,,56.673442400002386,56.67810020002071,57.159906600019895,57.193629699992016,58.16165490000276,58.16165490000276,58.16165490000276,58.912622199975885,m,0.73650890000863,None,,,Subject_05,001,2025-11-24_01h04.43.868,Semantic priming with gender association,,2025.1.1,59.79652438979735,2025-11-24 01h08.57.373370 +0530,
Student,neutral,f2.jpeg,female,26,26,0,f,0.7083195999730378,None,0,26,26,43,58.92884150001919,,,,,,,,,58.91936350002652,58.92884150001919,59.412395199993625,59.42902119999053,60.41415020002751,60.41415020002751,60.41415020002751,61.13187059998745,f,0.7083195999730378,None,,,Subject_05,001,2025-11-24_01h04.43.868,Semantic priming with gender association,,2025.1.1,59.79652438979735,2025-11-24 01h08.57.373370 +0530,
Secretary,feminine,m4.jpg,male,27,27,0,m,0.5810455999453552,None,0,27,27,26,61.14786430000095,,,,,,,,,61.14247959997738,61.14786430000095,61.632334999972954,61.649175699974876,62.63386709999759,62.63386709999759,62.63386709999759,63.217248099972494,m,0.5810455999453552,None,,,Subject_05,001,2025-11-24_01h04.43.868,Semantic priming with gender association,,2025.1.1,59.79652438979735,2025-11-24 01h08.57.373370 +0530,
Baker,neutral,m7.jpg,male,28,28,0,m,0.6034317999728955,None,0,28,28,52,63.23654610000085,,,,,,,,,63.227656200004276,63.23654610000085,63.71698349999497,63.750759800022934,64.71892569999909,64.71892569999909,64.71892569999909,65.33636939997086,m,0.6034317999728955,None,,,Subject_05,001,2025-11-24_01h04.43.868,Semantic priming with gender association,,2025.1.1,59.79652438979735,2025-11-24 01h08.57.373370 +0530,
Babysitter,feminine,f1.jpg,female,29,29,0,f,0.4594390999991447,None,0,29,29,21,65.36369710002327,,,,,,,,,65.35916470002849,65.36369710002327,65.83693639998091,65.86968120001256,66.8375195999979,66.8375195999979,66.8375195999979,67.30512289999751,f,0.4594390999991447,None,,,Subject_05,001,2025-11-24_01h04.43.868,Semantic priming with gender association,,2025.1.1,59.79652438979735,2025-11-24 01h08.57.373370 +0530,
Pilot,masculine,f8.jpeg,female,30,30,0,f,0.6285164000000805,None,0,30,30,15,67.32155079999939,,,,,,,,,67.31416289997287,67.32155079999939,67.8055395000265,67.8223897999851,68.80663429998094,68.80663429998094,68.80663429998094,69.44053109997185,f,0.6285164000000805,None,,,Subject_05,001,2025-11-24_01h04.43.868,Semantic priming with gender association,,2025.1.1,59.79652438979735,2025-11-24 01h08.57.373370 +0530,
Teacher,feminine,f7.jpg,female,31,31,0,f,0.377109199995175,None,0,31,31,33,69.45693340001162,,,,,,,,,69.44667149998713,69.45693340001162,69.94126460002735,69.95755140000256,70.94158470002003,70.94158470002003,70.94158470002003,71.32589129998814,f,0.377109199995175,None,,,Subject_05,001,2025-11-24_01h04.43.868,Semantic priming with gender association,,2025.1.1,59.79652438979735,2025-11-24 01h08.57.373370 +0530,
Student,neutral,m2.jpg,male,32,32,0,m,0.6805878999875858,None,0,32,32,42,71.355244699982,,,,,,,,,71.35009279998485,71.355244699982,71.82620980002685,71.85953700001119,72.82785070000682,72.82785070000682,72.82785070000682,73.51222390000476,m,0.6805878999875858,None,,,Subject_05,001,2025-11-24_01h04.43.868,Semantic priming with gender association,,2025.1.1,59.79652438979735,2025-11-24 01h08.57.373370 +0530,
Reporter,neutral,m3.jpg,male,33,33,0,f,0.308123400027398,None,0,33,33,44,73.52861039998243,,,,,,,,,73.52304699999513,73.52861039998243,74.01219149999088,74.02894470002502,75.01400909997756,75.01400909997756,75.01400909997756,75.33092440001201,f,0.308123400027398,None,,,Subject_05,001,2025-11-24_01h04.43.868,Semantic priming with gender association,,2025.1.1,59.79652438979735,2025-11-24 01h08.57.373370 +0530,
Mechanic,masculine,f1.jpg,female,34,34,0,f,0.7182682999991812,None,0,34,34,1,75.3471080000163,,,,,,,,,75.33796239999356,75.3471080000163,75.83038210001541,75.84726820001379,76.83228510001209,76.83228510001209,76.83228510001209,77.56591760000447,f,0.7182682999991812,None,,,Subject_05,001,2025-11-24_01h04.43.868,Semantic priming with gender association,,2025.1.1,59.79652438979735,2025-11-24 01h08.57.373370 +0530,
Republican,neutral,f5.jpeg,female,35,35,0,f,0.6916860000346787,None,0,35,35,49,77.58238340000389,,,,,,,,,77.57196199998725,77.58238340000389,78.06613669998478,78.08305499999551,79.0681409999961,79.0681409999961,79.0681409999961,79.76915850001387,f,0.6916860000346787,None,,,Subject_05,001,2025-11-24_01h04.43.868,Semantic priming with gender association,,2025.1.1,59.79652438979735,2025-11-24 01h08.57.373370 +0530,
Banker,masculine,m2.jpg,male,36,36,0,m,0.4737143999664113,None,0,36,36,2,79.78468119999161,,,,,,,,,79.780010699993,79.78468119999161,80.26885499997297,80.28571740002371,81.27018420002423,81.27018420002423,81.27018420002423,81.7541879999917,m,0.4737143999664113,None,,,Subject_05,001,2025-11-24_01h04.43.868,Semantic priming with gender association,,2025.1.1,59.79652438979735,2025-11-24 01h08.57.373370 +0530,
Reporter,neutral,f3.jpg,female,37,37,0,m,0.4278999000089243,None,0,37,37,45,81.81148299999768,,,,,,,,,81.8001069999882,81.81148299999768,82.25424109998858,82.32145819999278,83.25589680002304,83.25589680002304,83.25589680002304,83.69024480000371,m,0.4278999000089243,None,,,Subject_05,001,2025-11-24_01h04.43.868,Semantic priming with gender association,,2025.1.1,59.79652438979735,2025-11-24 01h08.57.373370 +0530,
Pilot,masculine,m8.jpg,male,38,38,0,m,0.8836696000071242,None,0,38,38,14,83.71454030001769,,,,,,,,,83.7089272000012,83.71454030001769,84.18992849998176,84.22326479997719,85.19176489999518,85.19176489999518,85.19176489999518,86.07609460002277,m,0.8836696000071242,None,,,Subject_05,001,2025-11-24_01h04.43.868,Semantic priming with gender association,,2025.1.1,59.79652438979735,2025-11-24 01h08.57.373370 +0530,
Nanny,feminine,m9.png,male,39,39,0,m,0.6326575999846682,None,0,39,39,36,86.12331639998592,,,,,,,,,86.11433180002496,86.12331639998592,86.57577579998178,86.62590220000129,87.57681960001355,87.57681960001355,87.57681960001355,88.2113737000036,m,0.6326575999846682,None,,,Subject_05,001,2025-11-24_01h04.43.868,Semantic priming with gender association,,2025.1.1,59.79652438979735,2025-11-24 01h08.57.373370 +0530,
Homemaker,feminine,m2.jpg,male,40,40,0,m,0.7484439000254497,None,0,40,40,22,88.227318499994,,,,,,,,,88.22225390002131,88.227318499994,88.71150049997959,88.72850989998551,89.71290340000996,89.71290340000996,89.71290340000996,90.46417009999277,m,0.7484439000254497,None,,,Subject_05,001,2025-11-24_01h04.43.868,Semantic priming with gender association,,2025.1.1,59.79652438979735,2025-11-24 01h08.57.373370 +0530,
Hunter,masculine,m4.jpg,male,41,41,0,m,0.4487267999793403,None,0,41,41,6,90.48065390001284,,,,,,,,,90.47598549997201,90.48065390001284,90.96416129998397,90.98030070000095,91.965367399971,91.965367399971,91.965367399971,92.41626259998884,m,0.4487267999793403,None,,,Subject_05,001,2025-11-24_01h04.43.868,Semantic priming with gender association,,2025.1.1,59.79652438979735,2025-11-24 01h08.57.373370 +0530,
Author,neutral,f1.jpg,female,42,42,0,f,0.7749917000182904,None,0,42,42,41,92.43309250002494,,,,,,,,,92.42183120001573,92.43309250002494,92.91589519998524,92.9352720999741,93.91744829999516,93.91744829999516,93.91744829999516,94.70202010002686,f,0.7749917000182904,None,,,Subject_05,001,2025-11-24_01h04.43.868,Semantic priming with gender association,,2025.1.1,59.79652438979735,2025-11-24 01h08.57.373370 +0530,
Artist,neutral,m10.jpg,male,43,43,0,m,0.8000546999974176,None,0,43,43,38,94.73628090001876,,,,,,,,,94.72918929997832,94.73628090001876,95.20202520000748,95.2354694000096,96.20276620000368,96.20276620000368,96.20276620000368,97.0047827999806,m,0.8000546999974176,None,,,Subject_05,001,2025-11-24_01h04.43.868,Semantic priming with gender association,,2025.1.1,59.79652438979735,2025-11-24 01h08.57.373370 +0530,
Engineer,masculine,f3.jpg,female,44,44,0,f,0.5909449000027962,None,0,44,44,5,97.04809029999888,,,,,,,,,97.03871280001476,97.04809029999888,97.50482839997858,97.55404989997623,98.50599169998895,98.50599169998895,98.50599169998895,99.10669939999934,f,0.5909449000027962,None,,,Subject_05,001,2025-11-24_01h04.43.868,Semantic priming with gender association,,2025.1.1,59.79652438979735,2025-11-24 01h08.57.373370 +0530,
Prostitute,feminine,m8.jpg,male,45,45,0,m,0.6416404999908991,None,0,45,45,34,99.12283559999196,,,,,,,,,99.11415869998746,99.12283559999196,99.60700020001968,99.62304259999655,100.60792639997089,100.60792639997089,100.60792639997089,101.25911320000887,m,0.6416404999908991,None,,,Subject_05,001,2025-11-24_01h04.43.868,Semantic priming with gender association,,2025.1.1,59.79652438979735,2025-11-24 01h08.57.373370 +0530,
Nurse,feminine,f3.jpg,female,46,46,0,f,0.624842900026124,None,0,46,46,25,101.30304189998424,,,,,,,,,101.29401930002496,101.30304189998424,101.75973150000209,101.8092597000068,102.76017369999317,102.76017369999317,102.76017369999317,103.39487660001032,f,0.624842900026124,None,,,Subject_05,001,2025-11-24_01h04.43.868,Semantic priming with gender association,,2025.1.1,59.79652438979735,2025-11-24 01h08.57.373370 +0530,
Mechanic,masculine,m1.jpg,male,47,47,0,m,0.5606773000326939,None,0,47,47,0,103.4103665999719,,,,,,,,,103.4053882000153,103.4103665999719,103.89476779999677,103.91143869998632,104.89599629997974,104.89599629997974,104.89599629997974,105.46387219999451,m,0.5606773000326939,None,,,Subject_05,001,2025-11-24_01h04.43.868,Semantic priming with gender association,,2025.1.1,59.79652438979735,2025-11-24 01h08.57.373370 +0530,
Interpreter,neutral,m6.jpg,male,48,48,0,m,0.6797785999951884,None,0,48,48,50,105.47935470001539,,,,,,,,,105.47187080001459,105.47935470001539,105.96362840000074,105.9801781999995,106.96499519998906,106.96499519998906,106.96499519998906,107.64914759999374,m,0.6797785999951884,None,,,Subject_05,001,2025-11-24_01h04.43.868,Semantic priming with gender association,,2025.1.1,59.79652438979735,2025-11-24 01h08.57.373370 +0530,
Lawyer,masculine,m5.jpeg,male,49,49,0,m,0.4802825999795459,None,0,49,49,8,107.6657168000238,,,,,,,,,107.65353419998428,107.6657168000238,108.14935929997591,108.16608390002511,109.15034649998415,109.15034649998415,109.15034649998415,109.63432299997658,m,0.4802825999795459,None,,,Subject_05,001,2025-11-24_01h04.43.868,Semantic priming with gender association,,2025.1.1,59.79652438979735,2025-11-24 01h08.57.373370 +0530,
Homemaker,feminine,f2.jpeg,female,50,50,0,f,0.5786958000389859,None,0,50,50,23,109.65077629999723,,,,,,,,,109.64026690000901,109.65077629999723,110.13432200002717,110.15119170001708,111.13601429999107,111.13601429999107,111.13601429999107,111.72008160001133,f,0.5786958000389859,None,,,Subject_05,001,2025-11-24_01h04.43.868,Semantic priming with gender association,,2025.1.1,59.79652438979735,2025-11-24 01h08.57.373370 +0530,
Airshostess,feminine,m6.jpg,male,51,51,0,m,0.6075884999590926,None,0,51,51,30,111.73640669998713,,,,,,,,,111.73121449997416,111.73640669998713,112.22005790000549,112.23676040000282,113.22210569999879,113.22210569999879,113.22210569999879,113.8392937000026,m,0.6075884999590926,None,,,Subject_05,001,2025-11-24_01h04.43.868,Semantic priming with gender association,,2025.1.1,59.79652438979735,2025-11-24 01h08.57.373370 +0530,
Teacher,feminine,m7.jpg,male,52,52,0,m,0.7039038999937475,None,0,52,52,32,113.85564670001622,,,,,,,,,113.8485239999718,113.85564670001622,114.33941860002233,114.3558720999863,115.3403003999847,115.3403003999847,115.3403003999847,116.05835940001998,m,0.7039038999937475,None,,,Subject_05,001,2025-11-24_01h04.43.868,Semantic priming with gender association,,2025.1.1,59.79652438979735,2025-11-24 01h08.57.373370 +0530,
Artist,neutral,f10.jpg,female,53,53,0,f,0.6276931999600492,None,0,53,53,39,116.07472550001694,,,,,,,,,116.06626089999918,116.07472550001694,116.55824139999459,116.57506830000784,117.55923389998497,117.55923389998497,117.55923389998497,118.19417510001222,f,0.6276931999600492,None,,,Subject_05,001,2025-11-24_01h04.43.868,Semantic priming with gender association,,2025.1.1,59.79652438979735,2025-11-24 01h08.57.373370 +0530,
Banker,masculine,f2.jpeg,female,54,0,1,f,0.6902184999780729,None,1,0,54,3,118.21079540002393,,,,,,,,,118.20058499998413,118.21079540002393,118.69447380001657,118.71128139999928,119.69531440001447,119.69531440001447,119.69531440001447,120.39646820002235,f,0.6902184999780729,None,,,Subject_05,001,2025-11-24_01h04.43.868,Semantic priming with gender association,,2025.1.1,59.79652438979735,2025-11-24 01h08.57.373370 +0530,
Homemaker,feminine,m2.jpg,male,55,1,1,m,0.8801671999972314,None,1,1,55,22,120.41278920002514,,,,,,,,,120.40735900000436,120.41278920002514,120.89643820002675,120.91324800002621,121.89743020001333,121.89743020001333,121.89743020001333,122.78251190000447,m,0.8801671999972314,None,,,Subject_05,001,2025-11-24_01h04.43.868,Semantic priming with gender association,,2025.1.1,59.79652438979735,2025-11-24 01h08.57.373370 +0530,
Democrat,neutral,f4.jpg,female,56,2,1,f,0.7266540000564419,None,1,2,56,47,122.79877039999701,,,,,,,,,122.79128479998326,122.79877039999701,123.28226270002779,123.29900940001244,124.2834999000188,124.2834999000188,124.2834999000188,125.0181124000228,f,0.7266540000564419,None,,,Subject_05,001,2025-11-24_01h04.43.868,Semantic priming with gender association,,2025.1.1,59.79652438979735,2025-11-24 01h08.57.373370 +0530,
Airshostess,feminine,m6.jpg,male,57,3,1,m,0.7378707999596372,None,1,3,57,30,125.0344110999722,,,,,,,,,125.0284039999824,125.0344110999722,125.51809520000825,125.53477430000203,126.51901899999939,126.51901899999939,126.51901899999939,127.27063250000356,m,0.7378707999596372,None,,,Subject_05,001,2025-11-24_01h04.43.868,Semantic priming with gender association,,2025.1.1,59.79652438979735,2025-11-24 01h08.57.373370 +0530,
Republican,neutral,m5.jpeg,male,58,4,1,m,0.6496657999814488,None,1,4,58,48,127.28681740001775,,,,,,,,,127.27610660000937,127.28681740001775,127.7706875000149,127.78736800001934,128.77162190002855,128.77162190002855,128.77162190002855,129.42383779998636,m,0.6496657999814488,None,,,Subject_05,001,2025-11-24_01h04.43.868,Semantic priming with gender association,,2025.1.1,59.79652438979735,2025-11-24 01h08.57.373370 +0530,
Mechanic,masculine,m1.jpg,male,59,5,1,m,0.4600669000064954,None,1,5,59,0,129.43956710002385,,,,,,,,,129.43248000001768,129.43956710002385,129.92321149999043,129.93998810002813,130.92436399997678,130.92436399997678,130.92436399997678,131.39174689998617,m,0.4600669000064954,None,,,Subject_05,001,2025-11-24_01h04.43.868,Semantic priming with gender association,,2025.1.1,59.79652438979735,2025-11-24 01h08.57.373370 +0530,
Baker,neutral,m7.jpg,male,60,6,1,m,0.4926195000298321,None,1,6,60,52,131.40799370000605,,,,,,,,,131.39983369997935,131.40799370000605,131.8917569000041,131.90840810001828,132.89376319997245,132.89376319997245,132.89376319997245,133.39458490000106,m,0.4926195000298321,None,,,Subject_05,001,2025-11-24_01h04.43.868,Semantic priming with gender association,,2025.1.1,59.79652438979735,2025-11-24 01h08.57.373370 +0530,
Librarian,feminine,f5.jpeg,female,61,7,1,f,0.513985900033731,None,1,7,61,29,133.41084640001645,,,,,,,,,133.39890959998593,133.41084640001645,133.89424779999536,133.9110279000015,134.89541749999626,134.89541749999626,134.89541749999626,135.41273789998377,f,0.513985900033731,None,,,Subject_05,001,2025-11-24_01h04.43.868,Semantic priming with gender association,,2025.1.1,59.79652438979735,2025-11-24 01h08.57.373370 +0530,
Babysitter,feminine,m1.jpg,male,62,8,1,m,0.4883583000046201,None,1,8,62,20,135.42927929997677,,,,,,,,,135.4211321999901,135.42927929997677,135.91298449999886,135.92973009997513,136.9139714000048,136.9139714000048,136.9139714000048,137.41483500000322,m,0.4883583000046201,None,,,Subject_05,001,2025-11-24_01h04.43.868,Semantic priming with gender association,,2025.1.1,59.79652438979735,2025-11-24 01h08.57.373370 +0530,
Student,neutral,f2.jpeg,female,63,9,1,f,0.5436187000013888,None,1,9,63,43,137.43096409999998,,,,,,,,,137.42263450002065,137.43096409999998,137.91496760002337,137.93160110001918,138.91651820001425,138.91651820001425,138.91651820001425,139.46735719998833,f,0.5436187000013888,None,,,Subject_05,001,2025-11-24_01h04.43.868,Semantic priming with gender association,,2025.1.1,59.79652438979735,2025-11-24 01h08.57.373370 +0530,
Student,neutral,m2.jpg,male,64,10,1,m,0.37429720000363886,None,1,10,64,42,139.4835097999894,,,,,,,,,139.47859830001835,139.4835097999894,139.96792889997596,139.98391970002558,140.96906600001967,140.96906600001967,140.96906600001967,141.35349299997324,m,0.37429720000363886,None,,,Subject_05,001,2025-11-24_01h04.43.868,Semantic priming with gender association,,2025.1.1,59.79652438979735,2025-11-24 01h08.57.373370 +0530,
Blacksmith,masculine,m9.png,male,65,11,1,m,0.6176756999921054,None,1,11,65,16,141.3995887999772,,,,,,,,,141.39167689997703,141.3995887999772,141.85343640000792,141.90244450001046,142.8542275999789,142.8542275999789,142.8542275999789,143.4884532999713,m,0.6176756999921054,None,,,Subject_05,001,2025-11-24_01h04.43.868,Semantic priming with gender association,,2025.1.1,59.79652438979735,2025-11-24 01h08.57.373370 +0530,
Democrat,neutral,m4.jpg,male,66,12,1,m,0.5674020000151359,None,1,12,66,46,143.50701399997342,,,,,,,,,143.50194170000032,143.50701399997342,143.98835020000115,144.0224898000015,144.98930590000236,144.98930590000236,144.98930590000236,145.55736109998543,m,0.5674020000151359,None,,,Subject_05,001,2025-11-24_01h04.43.868,Semantic priming with gender association,,2025.1.1,59.79652438979735,2025-11-24 01h08.57.373370 +0530,
Nurse,feminine,m3.jpg,male,67,13,1,m,0.6694352999911644,None,1,13,67,24,145.57440929999575,,,,,,,,,145.5686961999745,145.57440929999575,146.05841619998682,146.07438669999829,147.05847930000164,147.05847930000164,147.05847930000164,147.74278319999576,m,0.6694352999911644,None,,,Subject_05,001,2025-11-24_01h04.43.868,Semantic priming with gender association,,2025.1.1,59.79652438979735,2025-11-24 01h08.57.373370 +0530,
Baker,neutral,f7.jpg,female,68,14,1,f,0.8037325000041164,None,1,14,68,53,147.7590818000026,,,,,,,,,147.74884439999005,147.7590818000026,148.24375369999325,148.25971860002028,149.24441250000382,149.24441250000382,149.24441250000382,150.06234880001284,f,0.8037325000041164,None,,,Subject_05,001,2025-11-24_01h04.43.868,Semantic priming with gender association,,2025.1.1,59.79652438979735,2025-11-24 01h08.57.373370 +0530,
Airshostess,feminine,f6.jpg,female,69,15,1,m,0.5906515999813564,None,1,15,69,31,150.07858730002772,,,,,,,,,150.0716420999961,150.07858730002772,150.56217719998676,150.57900109997718,151.564009899972,151.564009899972,151.564009899972,152.16478749999078,m,0.5906515999813564,None,,,Subject_05,001,2025-11-24_01h04.43.868,Semantic priming with gender association,,2025.1.1,59.79652438979735,2025-11-24 01h08.57.373370 +0530,
Prostitute,feminine,m8.jpg,male,70,16,1,m,1.394901200023014,None,1,16,70,34,152.18087570002535,,,,,,,,,152.17221380001865,152.18087570002535,152.66474550002022,152.68173650000244,153.66561349999392,153.66561349999392,153.66561349999392,155.06778929999564,m,1.394901200023014,None,,,Subject_05,001,2025-11-24_01h04.43.868,Semantic priming with gender association,,2025.1.1,59.79652438979735,2025-11-24 01h08.57.373370 +0530,
Librarian,feminine,m5.jpeg,male,71,17,1,m,0.5799927999614738,None,1,17,71,28,155.08420310000656,,,,,,,,,155.07421039999463,155.08420310000656,155.56776589999208,155.58408619998954,156.56878889998188,156.56878889998188,156.56878889998188,157.15344339999137,m,0.5799927999614738,None,,,Subject_05,001,2025-11-24_01h04.43.868,Semantic priming with gender association,,2025.1.1,59.79652438979735,2025-11-24 01h08.57.373370 +0530,
Prostitute,feminine,f8.jpeg,female,72,18,1,f,0.5933133000507951,None,1,18,72,35,157.16994689998683,,,,,,,,,157.1642293999903,157.16994689998683,157.65349930000957,157.67025740002282,158.654675400001,158.654675400001,158.654675400001,159.256166999985,f,0.5933133000507951,None,,,Subject_05,001,2025-11-24_01h04.43.868,Semantic priming with gender association,,2025.1.1,59.79652438979735,2025-11-24 01h08.57.373370 +0530,
Hunter,masculine,m4.jpg,male,73,19,1,m,0.5959866999764927,None,1,19,73,6,159.27234450000105,,,,,,,,,159.26608380000107,159.27234450000105,159.75579349999316,159.77250070002628,160.75683460000437,160.75683460000437,160.75683460000437,161.3580242000171,m,0.5959866999764927,None,,,Subject_05,001,2025-11-24_01h04.43.868,Semantic priming with gender association,,2025.1.1,59.79652438979735,2025-11-24 01h08.57.373370 +0530,
Engineer,masculine,f3.jpg,female,74,20,1,f,1.1480847999919206,None,1,20,74,5,161.4082491999725,,,,,,,,,161.39719099999638,161.4082491999725,161.85794590000296,161.90770879999036,162.85949960001744,162.85949960001744,162.85949960001744,164.0109228999936,f,1.1480847999919206,None,,,Subject_05,001,2025-11-24_01h04.43.868,Semantic priming with gender association,,2025.1.1,59.79652438979735,2025-11-24 01h08.57.373370 +0530,
Author,neutral,f1.jpg,female,75,21,1,f,1.0325630999868736,None,1,21,75,41,164.0271592999925,,,,,,,,,164.01782589999493,164.0271592999925,164.51065740000922,164.52744779997738,165.51264560001437,165.51264560001437,165.51264560001437,166.5476481000078,f,1.0325630999868736,None,,,Subject_05,001,2025-11-24_01h04.43.868,Semantic priming with gender association,,2025.1.1,59.79652438979735,2025-11-24 01h08.57.373370 +0530,
Engineer,masculine,m3.jpg,male,76,22,1,m,0.6044709000270814,None,1,22,76,4,166.56408330000704,,,,,,,,,166.55855900002643,166.56408330000704,167.04712589998962,167.06391620001523,168.04863139998633,168.04863139998633,168.04863139998633,168.6658537000185,m,0.6044709000270814,None,,,Subject_05,001,2025-11-24_01h04.43.868,Semantic priming with gender association,,2025.1.1,59.79652438979735,2025-11-24 01h08.57.373370 +0530,
Pilot,masculine,m8.jpg,male,77,23,1,m,0.6093338999780826,None,1,23,77,14,168.68213069997728,,,,,,,,,168.67211929999758,168.68213069997728,169.1657573999837,169.1825490000192,170.16766650002683,170.16766650002683,170.16766650002683,170.78536829998484,m,0.6093338999780826,None,,,Subject_05,001,2025-11-24_01h04.43.868,Semantic priming with gender association,,2025.1.1,59.79652438979735,2025-11-24 01h08.57.373370 +0530,
Ballerina,feminine,m10.jpg,male,78,24,1,m,0.9410448000417091,None,1,24,78,18,170.8220051000244,,,,,,,,,170.81421649997355,170.8220051000244,171.28536999999778,171.33485470002051,172.28646299999673,172.28646299999673,172.28646299999673,173.2375699999975,m,0.9410448000417091,None,,,Subject_05,001,2025-11-24_01h04.43.868,Semantic priming with gender association,,2025.1.1,59.79652438979735,2025-11-24 01h08.57.373370 +0530,
Lawyer,masculine,f5.jpeg,female,79,25,1,f,0.7870457000099123,None,1,25,79,9,173.25360499997623,,,,,,,,,173.2427034000284,173.25360499997623,173.73823770001763,173.75408909999533,174.73920010001166,174.73920010001166,174.73920010001166,175.540343199973,f,0.7870457000099123,None,,,Subject_05,001,2025-11-24_01h04.43.868,Semantic priming with gender association,,2025.1.1,59.79652438979735,2025-11-24 01h08.57.373370 +0530,
Homemaker,feminine,f2.jpeg,female,80,26,1,f,0.6006688000052236,None,1,26,80,23,175.55664720002096,,,,,,,,,175.54620759998215,175.55664720002096,176.04021389997797,176.0572732000146,177.04122429998824,177.04122429998824,177.04122429998824,177.642545300012,f,0.6006688000052236,None,,,Subject_05,001,2025-11-24_01h04.43.868,Semantic priming with gender association,,2025.1.1,59.79652438979735,2025-11-24 01h08.57.373370 +0530,
Doctor,masculine,m7.jpg,male,81,27,1,m,0.8620869999867864,None,1,27,81,12,177.65890630002832,,,,,,,,,177.6522500999854,177.65890630002832,178.14260820002528,178.15944969997508,179.14374710002448,179.14374710002448,179.14374710002448,180.0121766999946,m,0.8620869999867864,None,,,Subject_05,001,2025-11-24_01h04.43.868,Semantic priming with gender association,,2025.1.1,59.79652438979735,2025-11-24 01h08.57.373370 +0530,
Blacksmith,masculine,f9.jpg,female,82,28,1,f,0.6046638999832794,None,1,28,82,17,180.0281422000262,,,,,,,,,180.02113339997595,180.0281422000262,180.51182160002645,180.52861739997752,181.51370170002338,181.51370170002338,181.51370170002338,182.13095469999826,f,0.6046638999832794,None,,,Subject_05,001,2025-11-24_01h04.43.868,Semantic priming with gender association,,2025.1.1,59.79652438979735,2025-11-24 01h08.57.373370 +0530,
Reporter,neutral,m3.jpg,male,83,29,1,m,0.5451401000027545,None,1,29,83,44,182.14723240002058,,,,,,,,,182.14233820000663,182.14723240002058,182.63105229998473,182.64866200002143,183.63191449997248,183.63191449997248,183.63191449997248,184.18326060002437,m,0.5451401000027545,None,,,Subject_05,001,2025-11-24_01h04.43.868,Semantic priming with gender association,,2025.1.1,59.79652438979735,2025-11-24 01h08.57.373370 +0530,
Secretary,feminine,m4.jpg,male,84,30,1,m,0.6171086000395007,None,1,30,84,26,184.2018210000242,,,,,,,,,184.1968774999841,184.2018210000242,184.6827842000057,184.71671940002125,185.68416349997278,185.68416349997278,185.68416349997278,186.30235680000624,m,0.6171086000395007,None,,,Subject_05,001,2025-11-24_01h04.43.868,Semantic priming with gender association,,2025.1.1,59.79652438979735,2025-11-24 01h08.57.373370 +0530,
Ballerina,feminine,f10.jpg,female,85,31,1,f,0.8421547000179999,None,1,31,85,19,186.3184194000205,,,,,,,,,186.31126029998995,186.3184194000205,186.80208039999707,186.81884560000617,187.8033450000221,187.8033450000221,187.8033450000221,188.65449129999615,f,0.8421547000179999,None,,,Subject_05,001,2025-11-24_01h04.43.868,Semantic priming with gender association,,2025.1.1,59.79652438979735,2025-11-24 01h08.57.373370 +0530,
Nanny,feminine,f9.jpg,female,86,32,1,f,0.474277000001166,None,1,32,86,37,188.67078949999996,,,,,,,,,188.66413709998596,188.67078949999996,189.15458189998753,189.17135000001872,190.15575189999072,190.15575189999072,190.15575189999072,190.64027460000943,f,0.474277000001166,None,,,Subject_05,001,2025-11-24_01h04.43.868,Semantic priming with gender association,,2025.1.1,59.79652438979735,2025-11-24 01h08.57.373370 +0530,
Lawyer,masculine,m5.jpeg,male,87,33,1,m,0.41510649997508153,None,1,33,87,8,190.65652359998785,,,,,,,,,190.64677549997577,190.65652359998785,191.14039080002112,191.15696930000558,192.1415440000128,192.1415440000128,192.1415440000128,192.55910399998538,m,0.41510649997508153,None,,,Subject_05,001,2025-11-24_01h04.43.868,Semantic priming with gender association,,2025.1.1,59.79652438979735,2025-11-24 01h08.57.373370 +0530,
Republican,neutral,f5.jpeg,female,88,34,1,f,0.38211190002039075,None,1,34,88,49,192.57563570002094,,,,,,,,,192.5646562000038,192.57563570002094,193.05931939999573,193.07602530001896,194.06025380000938,194.06025380000938,194.06025380000938,194.44464669999434,f,0.38211190002039075,None,,,Subject_05,001,2025-11-24_01h04.43.868,Semantic priming with gender association,,2025.1.1,59.79652438979735,2025-11-24 01h08.57.373370 +0530,
Interpreter,neutral,m6.jpg,male,89,35,1,m,0.8735047000227496,None,1,35,89,50,194.46124829998007,,,,,,,,,194.45321280002827,194.46124829998007,194.94467180001084,194.96148870000616,195.94557789998362,195.94557789998362,195.94557789998362,196.830457700009,m,0.8735047000227496,None,,,Subject_05,001,2025-11-24_01h04.43.868,Semantic priming with gender association,,2025.1.1,59.79652438979735,2025-11-24 01h08.57.373370 +0530,
Doctor,masculine,f7.jpg,female,90,36,1,f,0.5086084000067785,None,1,36,90,13,196.8468418000266,,,,,,,,,196.8379076999845,196.8468418000266,197.33042030001525,197.34721029998036,198.3312656999915,198.3312656999915,198.3312656999915,198.84900709998328,f,0.5086084000067785,None,,,Subject_05,001,2025-11-24_01h04.43.868,Semantic priming with gender association,,2025.1.1,59.79652438979735,2025-11-24 01h08.57.373370 +0530,
Teacher,feminine,f7.jpg,female,91,37,1,m,0.31583690003026277,None,1,37,91,33,198.8653306000051,,,,,,,,,198.8557290000026,198.8653306000051,199.34894090000307,199.365698300011,200.35084079997614,200.35084079997614,200.35084079997614,200.66808670002501,m,0.31583690003026277,None,,,Subject_05,001,2025-11-24_01h04.43.868,Semantic priming with gender association,,2025.1.1,59.79652438979735,2025-11-24 01h08.57.373370 +0530,
Interpreter,neutral,f6.jpg,female,92,38,1,f,0.7259513000026345,None,1,38,92,51,200.68363859999226,,,,,,,,,200.67650419997517,200.68363859999226,201.1700933999964,201.1887036000262,202.1698242999846,202.1698242999846,202.1698242999846,202.9039410999976,f,0.7259513000026345,None,,,Subject_05,001,2025-11-24_01h04.43.868,Semantic priming with gender association,,2025.1.1,59.79652438979735,2025-11-24 01h08.57.373370 +0530,
Driver,masculine,m6.jpg,male,93,39,1,m,0.5400677000288852,None,1,39,93,10,202.91992409998784,,,,,,,,,202.91376889997628,202.91992409998784,203.40372750000097,203.42044720001286,204.40515619999496,204.40515619999496,204.40515619999496,204.95616020000307,m,0.5400677000288852,None,,,Subject_05,001,2025-11-24_01h04.43.868,Semantic priming with gender association,,2025.1.1,59.79652438979735,2025-11-24 01h08.57.373370 +0530,
Hunter,masculine,f4.jpg,female,94,40,1,f,0.6918099999893457,None,1,40,94,7,204.97254029999021,,,,,,,,,204.96427589998348,204.97254029999021,205.45608969999012,205.47265509999124,206.45722929999465,206.45722929999465,206.45722929999465,207.15820509998593,f,0.6918099999893457,None,,,Subject_05,001,2025-11-24_01h04.43.868,Semantic priming with gender association,,2025.1.1,59.79652438979735,2025-11-24 01h08.57.373370 +0530,
Nurse,feminine,f3.jpg,female,95,41,1,f,0.6477652000030503,None,1,41,95,25,207.20570609997958,,,,,,,,,207.19451360002859,207.20570609997958,207.65847680001752,207.70800440001767,208.65933860000223,208.65933860000223,208.65933860000223,209.31124790001195,f,0.6477652000030503,None,,,Subject_05,001,2025-11-24_01h04.43.868,Semantic priming with gender association,,2025.1.1,59.79652438979735,2025-11-24 01h08.57.373370 +0530,
Banker,masculine,m2.jpg,male,96,42,1,m,0.47081460000481457,None,1,42,96,2,209.32760050002253,,,,,,,,,209.32346109999344,209.32760050002253,209.811106499983,209.82747670001118,210.8122123000212,210.8122123000212,210.8122123000212,211.29617629997665,m,0.47081460000481457,None,,,Subject_05,001,2025-11-24_01h04.43.868,Semantic priming with gender association,,2025.1.1,59.79652438979735,2025-11-24 01h08.57.373370 +0530,
Driver,masculine,f6.jpg,female,97,43,1,f,0.5959780999692157,None,1,43,97,11,211.31262280000374,,,,,,,,,211.30392729997402,211.31262280000374,211.79613279999467,211.81296720000682,212.79709559999174,212.79709559999174,212.79709559999174,213.398641399981,f,0.5959780999692157,None,,,Subject_05,001,2025-11-24_01h04.43.868,Semantic priming with gender association,,2025.1.1,59.79652438979735,2025-11-24 01h08.57.373370 +0530,
Author,neutral,m1.jpg,male,98,44,1,m,0.8138405000208877,None,1,44,98,40,213.41474869998638,,,,,,,,,213.40951289999066,213.41474869998638,213.89854630001355,213.91505000001052,214.89956910000183,214.89956910000183,214.89956910000183,215.71727919997647,m,0.8138405000208877,None,,,Subject_05,001,2025-11-24_01h04.43.868,Semantic priming with gender association,,2025.1.1,59.79652438979735,2025-11-24 01h08.57.373370 +0530,
Nanny,feminine,m9.png,male,99,45,1,m,0.8090401000226848,None,1,45,99,36,215.7731140999822,,,,,,,,,215.76532260002568,215.7731140999822,216.21794140001293,216.28404330002377,217.21891549997963,217.21891549997963,217.21891549997963,218.03685769997537,m,0.8090401000226848,None,,,Subject_05,001,2025-11-24_01h04.43.868,Semantic priming with gender association,,2025.1.1,59.79652438979735,2025-11-24 01h08.57.373370 +0530,
Mechanic,masculine,f1.jpg,female,100,46,1,f,1.2628203999483958,None,1,46,100,1,218.05319690000033,,,,,,,,,218.04240069998195,218.05319690000033,218.53688229998806,218.5536182000069,219.53783450002084,219.53783450002084,219.53783450002084,220.80675869999686,f,1.2628203999483958,None,,,Subject_05,001,2025-11-24_01h04.43.868,Semantic priming with gender association,,2025.1.1,59.79652438979735,2025-11-24 01h08.57.373370 +0530,
Babysitter,feminine,f1.jpg,female,101,47,1,f,0.5161410000291653,None,1,47,101,21,220.82281590002822,,,,,,,,,220.81311340001412,220.82281590002822,221.30653160001384,221.3233822999755,222.30764950002776,222.30764950002776,222.30764950002776,222.8252992000198,f,0.5161410000291653,None,,,Subject_05,001,2025-11-24_01h04.43.868,Semantic priming with gender association,,2025.1.1,59.79652438979735,2025-11-24 01h08.57.373370 +0530,
Teacher,feminine,m7.jpg,male,102,48,1,m,1.0672073000459932,None,1,48,102,32,222.84163460001582,,,,,,,,,222.8362401999766,222.84163460001582,223.3255314999842,223.34210770000936,224.32713180000428,224.32713180000428,224.32713180000428,225.39491169998655,m,1.0672073000459932,None,,,Subject_05,001,2025-11-24_01h04.43.868,Semantic priming with gender association,,2025.1.1,59.79652438979735,2025-11-24 01h08.57.373370 +0530,
Secretary,feminine,f4.jpg,female,103,49,1,f,0.5797921000048518,None,1,49,103,27,225.41329050000058,,,,,,,,,225.40804850001587,225.41329050000058,225.8946257000207,225.92817259998992,226.89649620000273,226.89649620000273,226.89649620000273,227.48050659999717,f,0.5797921000048518,None,,,Subject_05,001,2025-11-24_01h04.43.868,Semantic priming with gender association,,2025.1.1,59.79652438979735,2025-11-24 01h08.57.373370 +0530,
Artist,neutral,m10.jpg,male,104,50,1,m,0.46991859999252483,None,1,50,104,38,227.51232430001255,,,,,,,,,227.50620439997874,227.51232430001255,227.98048059997382,228.01397530001123,228.9821430000011,228.9821430000011,228.9821430000011,229.46617530001095,m,0.46991859999252483,None,,,Subject_05,001,2025-11-24_01h04.43.868,Semantic priming with gender association,,2025.1.1,59.79652438979735,2025-11-24 01h08.57.373370 +0530,
Pilot,masculine,f8.jpeg,female,105,51,1,f,0.42416250001406297,None,1,51,105,15,229.48236460000044,,,,,,,,,229.47695490001934,229.48236460000044,229.9663334999932,229.98278159997426,230.96724780002842,230.96724780002842,230.96724780002842,231.401426299999,f,0.42416250001406297,None,,,Subject_05,001,2025-11-24_01h04.43.868,Semantic priming with gender association,,2025.1.1,59.79652438979735,2025-11-24 01h08.57.373370 +0530,
Artist,neutral,f10.jpg,female,106,52,1,f,1.5208321000100113,None,1,52,106,39,231.4175641000038,,,,,,,,,231.40967730002012,231.4175641000038,231.90165850002086,231.91782809997676,232.9029634000035,232.9029634000035,232.9029634000035,234.43830769998021,f,1.5208321000100113,None,,,Subject_05,001,2025-11-24_01h04.43.868,Semantic priming with gender association,,2025.1.1,59.79652438979735,2025-11-24 01h08.57.373370 +0530,
Reporter,neutral,f3.jpg,female,107,53,1,f,0.7857467000139877,None,1,53,107,45,234.4826619999949,,,,,,,,,234.4727521999739,234.4826619999949,234.93849019997288,234.98858900001505,235.93933389999438,235.93933389999438,235.93933389999438,236.741319200024,f,0.7857467000139877,None,,,Subject_05,001,2025-11-24_01h04.43.868,Semantic priming with gender association,,2025.1.1,59.79652438979735,2025-11-24 01h08.57.373370 +0530,
,,,,,,,,,,,,,,,,,,,,,,,,,,,,,,,,,,236.74144269997487,236.75897490000352,,,,,,,,,
