prime_word,prime_gender,target_image,target_gender,thisN,thisTrialN,thisRepN,key_resp.keys,key_resp.rt,key_resp.duration,trials.thisRepN,trials.thisTrialN,trials.thisN,trials.thisIndex,thisRow.t,notes,Instructions.started,text_2.started,key_resp_2.started,Instructions.stopped,key_resp_2.keys,key_resp_2.rt,key_resp_2.duration,trial.started,fixation.started,prime.started,fixation.stopped,target_picture.started,key_resp.started,prime.stopped,trial.stopped,trials.key_resp.keys,trials.key_resp.rt,trials.key_resp.duration,Thankyou.started,text.started,participant,session,date,expName,expVersion,psychopyVersion,frameRate,expStart,
,,,,,,,,,,,,,,,,0.004053700002259575,0.020455299993045628,0.020455299993045628,2.1077026999992086,space,2.0659302999993088,None,,,,,,,,,,,,,,Subject_01,001,2025-11-19_14h12.35.360,Semantic priming with gender association,,2025.1.1,59.90190464366028,2025-11-19 14h12.47.111657 +0530,
Interpreter,neutral,f6.jpg,female,0,0,0,f,0.5633843999967212,None,0,0,0,51,2.161649400004535,,,,,,,,,2.154739499994321,2.161649400004535,2.622557399998186,2.67251170000236,3.6073983999958728,3.6073983999958728,3.6246354000031715,4.176136599999154,f,0.5633843999967212,None,,,Subject_01,001,2025-11-19_14h12.35.360,Semantic priming with gender association,,2025.1.1,59.90190464366028,2025-11-19 14h12.47.111657 +0530,
Secretary,feminine,m4.jpg,male,1,1,0,m,0.7208659000025364,None,0,1,1,26,4.203175000002375,,,,,,,,,4.197368199995253,4.203175000002375,4.675769699999364,4.708442200004356,5.676878099999158,5.676878099999158,5.676878099999158,6.41253339999821,m,0.7208659000025364,None,,,Subject_01,001,2025-11-19_14h12.35.360,Semantic priming with gender association,,2025.1.1,59.90190464366028,2025-11-19 14h12.47.111657 +0530,
Baker,neutral,m7.jpg,male,2,2,0,m,0.5740885999985039,None,0,2,2,52,6.430000399996061,,,,,,,,,6.425210799992783,6.430000399996061,6.928394200003822,6.9453405999956885,7.9148792999912985,7.9148792999912985,7.928948200002196,8.496719999995548,m,0.5740885999985039,None,,,Subject_01,001,2025-11-19_14h12.35.360,Semantic priming with gender association,,2025.1.1,59.90190464366028,2025-11-19 14h12.47.111657 +0530,
Doctor,masculine,m7.jpg,male,3,3,0,m,0.5402982999949018,None,0,3,3,12,8.514150399991195,,,,,,,,,8.509138299996266,8.514150399991195,8.99732120000408,9.014129300005152,9.998670599990874,9.998670599990874,9.998670599990874,10.549487399999634,m,0.5402982999949018,None,,,Subject_01,001,2025-11-19_14h12.35.360,Semantic priming with gender association,,2025.1.1,59.90190464366028,2025-11-19 14h12.47.111657 +0530,
Democrat,neutral,f4.jpg,female,4,4,0,f,0.547071799999685,None,0,4,4,47,10.590255699993577,,,,,,,,,10.584661200002301,10.590255699993577,11.04983099999663,11.099413399992045,12.049839799990878,12.049839799990878,12.049839799990878,12.60114440000325,f,0.547071799999685,None,,,Subject_01,001,2025-11-19_14h12.35.360,Semantic priming with gender association,,2025.1.1,59.90190464366028,2025-11-19 14h12.47.111657 +0530,
Hunter,masculine,m4.jpg,male,5,5,0,m,0.5285062000039034,None,0,5,5,6,12.622472100003506,,,,,,,,,12.614682600004016,12.622472100003506,13.100739500005147,13.134577599994373,14.102357700001448,14.102357700001448,14.102357700001448,14.637437299999874,m,0.5285062000039034,None,,,Subject_01,001,2025-11-19_14h12.35.360,Semantic priming with gender association,,2025.1.1,59.90190464366028,2025-11-19 14h12.47.111657 +0530,
Pilot,masculine,m8.jpg,male,6,6,0,m,0.3888166000106139,None,0,6,6,14,14.674142000003485,,,,,,,,,14.668201299995417,14.674142000003485,15.137038500004564,15.187422200004221,16.13812869999674,16.13812869999674,16.13812869999674,16.539191999996547,m,0.3888166000106139,None,,,Subject_01,001,2025-11-19_14h12.35.360,Semantic priming with gender association,,2025.1.1,59.90190464366028,2025-11-19 14h12.47.111657 +0530,
Prostitute,feminine,f8.jpeg,female,7,7,0,f,0.631578400003491,None,0,7,7,35,16.562629499996547,,,,,,,,,16.55678800000169,16.562629499996547,17.038871400000062,17.07260299999325,18.040276899992023,18.040276899992023,18.040276899992023,18.674279999991995,f,0.631578400003491,None,,,Subject_01,001,2025-11-19_14h12.35.360,Semantic priming with gender association,,2025.1.1,59.90190464366028,2025-11-19 14h12.47.111657 +0530,
Lawyer,masculine,m5.jpeg,male,8,8,0,m,0.5546343000023626,None,0,8,8,8,18.694409299991094,,,,,,,,,18.688650800002506,18.694409299991094,19.174868300004164,19.207972499993048,20.17671970000083,20.17671970000083,20.17671970000083,20.744805299997097,m,0.5546343000023626,None,,,Subject_01,001,2025-11-19_14h12.35.360,Semantic priming with gender association,,2025.1.1,59.90190464366028,2025-11-19 14h12.47.111657 +0530,
Librarian,feminine,f5.jpeg,female,9,9,0,f,0.4610346999979811,None,0,9,9,29,20.765166500001214,,,,,,,,,20.759650899999542,20.765166500001214,21.259774699996342,21.278249700000742,22.261544199995114,22.261544199995114,22.261544199995114,22.72882999999274,f,0.4610346999979811,None,,,Subject_01,001,2025-11-19_14h12.35.360,Semantic priming with gender association,,2025.1.1,59.90190464366028,2025-11-19 14h12.47.111657 +0530,
Airshostess,feminine,f6.jpg,female,10,10,0,f,0.4360155000031227,None,0,10,10,31,22.746448599995347,,,,,,,,,22.7378025999933,22.746448599995347,23.228818499992485,23.24576309999975,24.230467100001988,24.230467100001988,24.230467100001988,24.66719189999276,f,0.4360155000031227,None,,,Subject_01,001,2025-11-19_14h12.35.360,Semantic priming with gender association,,2025.1.1,59.90190464366028,2025-11-19 14h12.47.111657 +0530,
Hunter,masculine,f4.jpg,female,11,11,0,f,0.7180149999912828,None,0,11,11,7,24.6837680000026,,,,,,,,,24.677957299994887,24.6837680000026,25.18145910000021,25.19740069999534,26.18201780000527,26.18201780000527,26.18201780000527,26.917019799991976,f,0.7180149999912828,None,,,Subject_01,001,2025-11-19_14h12.35.360,Semantic priming with gender association,,2025.1.1,59.90190464366028,2025-11-19 14h12.47.111657 +0530,
Mechanic,masculine,m1.jpg,male,12,12,0,m,0.37575080001261085,None,0,12,12,0,26.93735559999186,,,,,,,,,26.932565900002373,26.93735559999186,27.417352399992524,27.44974199999706,28.41830900000059,28.41830900000059,28.41830900000059,28.803080800003954,m,0.37575080001261085,None,,,Subject_01,001,2025-11-19_14h12.35.360,Semantic priming with gender association,,2025.1.1,59.90190464366028,2025-11-19 14h12.47.111657 +0530,
Interpreter,neutral,m6.jpg,male,13,13,0,m,0.8671245000005001,None,0,13,13,50,28.826986799991573,,,,,,,,,28.82091149999178,28.826986799991573,29.305057799996575,29.336152200005017,30.306861999997636,30.306861999997636,30.320909599991865,31.18872969999211,m,0.8671245000005001,None,,,Subject_01,001,2025-11-19_14h12.35.360,Semantic priming with gender association,,2025.1.1,59.90190464366028,2025-11-19 14h12.47.111657 +0530,
Reporter,neutral,m3.jpg,male,14,14,0,m,0.4980840999924112,None,0,14,14,44,31.21622539999953,,,,,,,,,31.210221799992723,31.21622539999953,31.688725799991516,31.72142359999998,32.689709900005255,32.689709900005255,32.689709900005255,33.190377899998566,m,0.4980840999924112,None,,,Subject_01,001,2025-11-19_14h12.35.360,Semantic priming with gender association,,2025.1.1,59.90190464366028,2025-11-19 14h12.47.111657 +0530,
Engineer,masculine,f3.jpg,female,15,15,0,f,0.7411823000002187,None,0,15,15,5,33.25378939999791,,,,,,,,,33.23877739999443,33.25378939999791,33.690325100003975,33.75730399999884,34.69314669999585,34.69314669999585,34.69314669999585,35.44327859999612,f,0.7411823000002187,None,,,Subject_01,001,2025-11-19_14h12.35.360,Semantic priming with gender association,,2025.1.1,59.90190464366028,2025-11-19 14h12.47.111657 +0530,
Mechanic,masculine,f1.jpg,female,16,16,0,f,0.744818099992699,None,0,16,16,1,35.45939370000269,,,,,,,,,35.452908199993544,35.45939370000269,35.94286819999979,35.961705800000345,36.94772419999936,36.94772419999936,36.94772419999936,37.69567649999226,f,0.744818099992699,None,,,Subject_01,001,2025-11-19_14h12.35.360,Semantic priming with gender association,,2025.1.1,59.90190464366028,2025-11-19 14h12.47.111657 +0530,
Homemaker,feminine,f2.jpeg,female,17,17,0,f,0.4902580000052694,None,0,17,17,23,37.73462180000206,,,,,,,,,37.729448400001274,37.73462180000206,38.19507909999811,38.24692109999887,39.198730699994485,39.198730699994485,39.198730699994485,39.69905339999241,f,0.4902580000052694,None,,,Subject_01,001,2025-11-19_14h12.35.360,Semantic priming with gender association,,2025.1.1,59.90190464366028,2025-11-19 14h12.47.111657 +0530,
Republican,neutral,f5.jpeg,female,18,18,0,f,0.4982939999899827,None,0,18,18,49,39.71615480000037,,,,,,,,,39.70516250000219,39.71615480000037,40.19976190000307,40.21670730000187,41.20002459999523,41.20002459999523,41.20002459999523,41.70112499999232,f,0.4982939999899827,None,,,Subject_01,001,2025-11-19_14h12.35.360,Semantic priming with gender association,,2025.1.1,59.90190464366028,2025-11-19 14h12.47.111657 +0530,
Nurse,feminine,f3.jpg,female,19,19,0,f,0.4166741999943042,None,0,19,19,25,41.76095919999352,,,,,,,,,41.74550879999879,41.76095919999352,42.20273229999293,42.26738679999835,43.20128690000274,43.20128690000274,43.20128690000274,43.61963899999682,f,0.4166741999943042,None,,,Subject_01,001,2025-11-19_14h12.35.360,Semantic priming with gender association,,2025.1.1,59.90190464366028,2025-11-19 14h12.47.111657 +0530,
Prostitute,feminine,m8.jpg,male,20,20,0,m,0.8161089999921387,None,0,20,20,34,43.635627299998305,,,,,,,,,43.62802340000053,43.635627299998305,44.12004919999163,44.13682980000158,45.1217187000002,45.1217187000002,45.1217187000002,45.94030770000245,m,0.8161089999921387,None,,,Subject_01,001,2025-11-19_14h12.35.360,Semantic priming with gender association,,2025.1.1,59.90190464366028,2025-11-19 14h12.47.111657 +0530,
Reporter,neutral,f3.jpg,female,21,21,0,f,0.6579547000001185,None,0,21,21,45,46.00284919999831,,,,,,,,,45.98446609999519,46.00284919999831,46.455180199991446,46.50576329999603,47.458585300002596,47.458585300002596,47.458585300002596,48.12499270000262,f,0.6579547000001185,None,,,Subject_01,001,2025-11-19_14h12.35.360,Semantic priming with gender association,,2025.1.1,59.90190464366028,2025-11-19 14h12.47.111657 +0530,
Driver,masculine,m6.jpg,male,22,22,0,m,0.40337040000304114,None,0,22,22,10,48.146797599998536,,,,,,,,,48.140153999993345,48.146797599998536,48.626386599993566,48.65908080000372,49.62611389999802,49.62611389999802,49.64446840000164,50.0302182000014,m,0.40337040000304114,None,,,Subject_01,001,2025-11-19_14h12.35.360,Semantic priming with gender association,,2025.1.1,59.90190464366028,2025-11-19 14h12.47.111657 +0530,
Ballerina,feminine,f10.jpg,female,23,23,0,f,0.4779869000049075,None,0,23,23,19,50.05259300000034,,,,,,,,,50.04757700000482,50.05259300000034,50.541956599990954,50.560158099993714,51.54516880000301,51.54516880000301,51.54516880000301,52.02937190000375,f,0.4779869000049075,None,,,Subject_01,001,2025-11-19_14h12.35.360,Semantic priming with gender association,,2025.1.1,59.90190464366028,2025-11-19 14h12.47.111657 +0530,
Nurse,feminine,m3.jpg,male,24,24,0,m,0.512345600000117,None,0,24,24,24,52.04915429999528,,,,,,,,,52.04274639999494,52.04915429999528,52.530060699995374,52.56236579999677,53.53214409999782,53.53214409999782,53.53214409999782,54.048111099997186,m,0.512345600000117,None,,,Subject_01,001,2025-11-19_14h12.35.360,Semantic priming with gender association,,2025.1.1,59.90190464366028,2025-11-19 14h12.47.111657 +0530,
Teacher,feminine,m7.jpg,male,25,25,0,m,0.9480146999994759,None,0,25,25,32,54.063518199996906,,,,,,,,,54.05818459999864,54.063518199996906,54.5463837999996,54.56324699999823,55.549781099995016,55.549781099995016,55.549781099995016,56.50053900000057,m,0.9480146999994759,None,,,Subject_01,001,2025-11-19_14h12.35.360,Semantic priming with gender association,,2025.1.1,59.90190464366028,2025-11-19 14h12.47.111657 +0530,
Engineer,masculine,m3.jpg,male,26,26,0,m,0.4727340999961598,None,0,26,26,4,56.52221359999385,,,,,,,,,56.515375699993456,56.52221359999385,57.00212419999298,57.03501540000434,58.00178180000512,58.00178180000512,58.00178180000512,58.48614589999488,m,0.4727340999961598,None,,,Subject_01,001,2025-11-19_14h12.35.360,Semantic priming with gender association,,2025.1.1,59.90190464366028,2025-11-19 14h12.47.111657 +0530,
Artist,neutral,f10.jpg,female,27,27,0,f,0.6544173000002047,None,0,27,27,39,58.503213699994376,,,,,,,,,58.496878999998444,58.503213699994376,58.98615229999996,59.002457499998854,59.98881149999215,59.98881149999215,59.98881149999215,60.65558459999738,f,0.6544173000002047,None,,,Subject_01,001,2025-11-19_14h12.35.360,Semantic priming with gender association,,2025.1.1,59.90190464366028,2025-11-19 14h12.47.111657 +0530,
Nanny,feminine,m9.png,male,28,28,0,m,0.5124695999984397,None,0,28,28,36,60.722380199993495,,,,,,,,,60.71132249999209,60.722380199993495,61.15589259999979,61.22288390000176,62.1553450999927,62.1553450999927,62.1553450999927,62.6723076000053,m,0.5124695999984397,None,,,Subject_01,001,2025-11-19_14h12.35.360,Semantic priming with gender association,,2025.1.1,59.90190464366028,2025-11-19 14h12.47.111657 +0530,
Student,neutral,f2.jpeg,female,29,29,0,f,0.9323322999989614,None,0,29,29,43,62.688831699997536,,,,,,,,,62.679195799995796,62.688831699997536,63.17295849999937,63.19054949999554,64.17878469999414,64.17878469999414,64.17878469999414,65.12670999999682,f,0.9323322999989614,None,,,Subject_01,001,2025-11-19_14h12.35.360,Semantic priming with gender association,,2025.1.1,59.90190464366028,2025-11-19 14h12.47.111657 +0530,
Airshostess,feminine,m6.jpg,male,30,30,0,m,0.7176099000062095,None,0,30,30,30,65.14251510000031,,,,,,,,,65.13573480000196,65.14251510000031,65.6262732000032,65.64403110000421,66.63053399999626,66.63053399999626,66.63053399999626,67.36434479999298,m,0.7176099000062095,None,,,Subject_01,001,2025-11-19_14h12.35.360,Semantic priming with gender association,,2025.1.1,59.90190464366028,2025-11-19 14h12.47.111657 +0530,
Republican,neutral,m5.jpeg,male,31,31,0,m,0.8125352000060957,None,0,31,31,48,67.37738679999893,,,,,,,,,67.37012199999299,67.37738679999893,67.87955660000443,67.87955660000443,68.86346589999448,68.86346589999448,68.88156729999173,69.6816281999927,m,0.8125352000060957,None,,,Subject_01,001,2025-11-19_14h12.35.360,Semantic priming with gender association,,2025.1.1,59.90190464366028,2025-11-19 14h12.47.111657 +0530,
Nanny,feminine,f9.jpg,female,32,32,0,f,0.7471035000053234,None,0,32,32,37,69.70677969999088,,,,,,,,,69.69925380000495,69.70677969999088,70.1815937999927,70.21753339999123,71.18269780000264,71.18269780000264,71.18269780000264,71.93432489999395,f,0.7471035000053234,None,,,Subject_01,001,2025-11-19_14h12.35.360,Semantic priming with gender association,,2025.1.1,59.90190464366028,2025-11-19 14h12.47.111657 +0530,
Artist,neutral,m10.jpg,male,33,33,0,m,0.4657849999930477,None,0,33,33,38,71.99860589999298,,,,,,,,,71.98488020000514,71.99860589999298,72.43477179999172,72.50321949999488,73.4349796000024,73.4349796000024,73.4349796000024,73.903670899992,m,0.4657849999930477,None,,,Subject_01,001,2025-11-19_14h12.35.360,Semantic priming with gender association,,2025.1.1,59.90190464366028,2025-11-19 14h12.47.111657 +0530,
Lawyer,masculine,f5.jpeg,female,34,34,0,f,0.5317741999897407,None,0,34,34,9,73.91914099999121,,,,,,,,,73.90879709999717,73.91914099999121,74.40311519999523,74.42044390000228,75.4036277999985,75.4036277999985,75.4036277999985,75.9371902999992,f,0.5317741999897407,None,,,Subject_01,001,2025-11-19_14h12.35.360,Semantic priming with gender association,,2025.1.1,59.90190464366028,2025-11-19 14h12.47.111657 +0530,
Blacksmith,masculine,m9.png,male,35,35,0,m,0.7513479000044754,None,0,35,35,16,75.99154499999713,,,,,,,,,75.98153570000432,75.99154499999713,76.43817829999898,76.50682439999946,77.44111200000043,77.44111200000043,77.44111200000043,78.20884900000237,m,0.7513479000044754,None,,,Subject_01,001,2025-11-19_14h12.35.360,Semantic priming with gender association,,2025.1.1,59.90190464366028,2025-11-19 14h12.47.111657 +0530,
Secretary,feminine,f4.jpg,female,36,36,0,f,0.667938900005538,None,0,36,36,27,78.22475449999911,,,,,,,,,78.21820970000408,78.22475449999911,78.70959389999916,78.72423150000395,79.71066899999278,79.71066899999278,79.71066899999278,80.39402459999837,f,0.667938900005538,None,,,Subject_01,001,2025-11-19_14h12.35.360,Semantic priming with gender association,,2025.1.1,59.90190464366028,2025-11-19 14h12.47.111657 +0530,
Author,neutral,m1.jpg,male,37,37,0,m,0.5210195999970892,None,0,37,37,40,80.40988740000466,,,,,,,,,80.40348579999409,80.40988740000466,80.90938169999572,80.90938169999572,81.89390439999988,81.89390439999988,81.91305419999117,82.42850959999487,m,0.5210195999970892,None,,,Subject_01,001,2025-11-19_14h12.35.360,Semantic priming with gender association,,2025.1.1,59.90190464366028,2025-11-19 14h12.47.111657 +0530,
Pilot,masculine,f8.jpeg,female,38,38,0,f,0.740952299995115,None,0,38,38,15,82.44515149999643,,,,,,,,,82.43916239999817,82.44515149999643,82.92991579999216,82.94569520000368,83.93095539999194,83.93095539999194,83.93095539999194,84.68109080000431,f,0.740952299995115,None,,,Subject_01,001,2025-11-19_14h12.35.360,Semantic priming with gender association,,2025.1.1,59.90190464366028,2025-11-19 14h12.47.111657 +0530,
Blacksmith,masculine,f9.jpg,female,39,39,0,f,0.8983776999957627,None,0,39,39,17,84.69654419999279,,,,,,,,,84.69128499999351,84.69654419999279,85.18196420000459,85.19832260000112,86.18394269999408,86.18394269999408,86.18394269999408,87.08439889999863,f,0.8983776999957627,None,,,Subject_01,001,2025-11-19_14h12.35.360,Semantic priming with gender association,,2025.1.1,59.90190464366028,2025-11-19 14h12.47.111657 +0530,
Teacher,feminine,f7.jpg,female,40,40,0,f,0.795953599998029,None,0,40,40,33,87.10893919999944,,,,,,,,,87.10251699999208,87.10893919999944,87.6009408999962,87.61703359999228,88.58402599999681,88.58402599999681,88.60078459999932,89.38606409999193,f,0.795953599998029,None,,,Subject_01,001,2025-11-19_14h12.35.360,Semantic priming with gender association,,2025.1.1,59.90190464366028,2025-11-19 14h12.47.111657 +0530,
Homemaker,feminine,m2.jpg,male,41,41,0,m,0.7532198000117205,None,0,41,41,22,89.41489689999435,,,,,,,,,89.40857129999495,89.41489689999435,89.88789080000424,89.91989239999384,90.88981249999779,90.88981249999779,90.88981249999779,91.65463789999194,m,0.7532198000117205,None,,,Subject_01,001,2025-11-19_14h12.35.360,Semantic priming with gender association,,2025.1.1,59.90190464366028,2025-11-19 14h12.47.111657 +0530,
Author,neutral,f1.jpg,female,42,42,0,f,0.5584781000070507,None,0,42,42,41,91.67086549999658,,,,,,,,,91.66302749999159,91.67086549999658,92.15385259999312,92.17107229999965,93.15693679999094,93.15693679999094,93.15693679999094,93.72389300000214,f,0.5584781000070507,None,,,Subject_01,001,2025-11-19_14h12.35.360,Semantic priming with gender association,,2025.1.1,59.90190464366028,2025-11-19 14h12.47.111657 +0530,
Driver,masculine,f6.jpg,female,43,43,0,f,0.820819600005052,None,0,43,43,11,93.74112649999734,,,,,,,,,93.73528589999478,93.74112649999734,94.22442210000008,94.23998840000422,95.22663659999671,95.22663659999671,95.22663659999671,96.06078990000242,f,0.820819600005052,None,,,Subject_01,001,2025-11-19_14h12.35.360,Semantic priming with gender association,,2025.1.1,59.90190464366028,2025-11-19 14h12.47.111657 +0530,
Student,neutral,m2.jpg,male,44,44,0,m,0.9490593000082299,None,0,44,44,42,96.07962370000314,,,,,,,,,96.07306359999347,96.07962370000314,96.57601550000254,96.59346899999946,97.56193290000374,97.56193290000374,97.57836990000214,98.51425589999417,m,0.9490593000082299,None,,,Subject_01,001,2025-11-19_14h12.35.360,Semantic priming with gender association,,2025.1.1,59.90190464366028,2025-11-19 14h12.47.111657 +0530,
Baker,neutral,f7.jpg,female,45,45,0,f,0.4967259999975795,None,0,45,45,53,98.52805169999192,,,,,,,,,98.52166359999683,98.52805169999192,99.01145710000128,99.02904510000371,100.01549639999575,100.01549639999575,100.01549639999575,100.51580860000104,f,0.4967259999975795,None,,,Subject_01,001,2025-11-19_14h12.35.360,Semantic priming with gender association,,2025.1.1,59.90190464366028,2025-11-19 14h12.47.111657 +0530,
Banker,masculine,f2.jpeg,female,46,46,0,f,0.511023999992176,None,0,46,46,3,100.53150719999394,,,,,,,,,100.52237330000207,100.53150719999394,101.01769469999999,101.03200300000026,102.01681960000133,102.01681960000133,102.01681960000133,102.53323369999998,f,0.511023999992176,None,,,Subject_01,001,2025-11-19_14h12.35.360,Semantic priming with gender association,,2025.1.1,59.90190464366028,2025-11-19 14h12.47.111657 +0530,
Democrat,neutral,m4.jpg,male,47,47,0,m,0.7274581999954535,None,0,47,47,46,102.55310350000218,,,,,,,,,102.54686119999678,102.55310350000218,103.03408399999898,103.06772829999682,104.03613520000363,104.03613520000363,104.03613520000363,104.7688718999998,m,0.7274581999954535,None,,,Subject_01,001,2025-11-19_14h12.35.360,Semantic priming with gender association,,2025.1.1,59.90190464366028,2025-11-19 14h12.47.111657 +0530,
Babysitter,feminine,m1.jpg,male,48,48,0,f,0.41568439999537077,None,0,48,48,20,104.78624819999095,,,,,,,,,104.78038229999947,104.78624819999095,105.27067559999705,105.28679980000015,106.27302480000071,106.27302480000071,106.27302480000071,106.70449479999661,f,0.41568439999537077,None,,,Subject_01,001,2025-11-19_14h12.35.360,Semantic priming with gender association,,2025.1.1,59.90190464366028,2025-11-19 14h12.47.111657 +0530,
Banker,masculine,m2.jpg,male,49,49,0,m,1.309615300007863,None,0,49,49,2,106.72147399999085,,,,,,,,,106.71577519999119,106.72147399999085,107.20403120000265,107.22149389999686,108.20582730000024,108.20582730000024,108.20582730000024,109.52503920000163,m,1.309615300007863,None,,,Subject_01,001,2025-11-19_14h12.35.360,Semantic priming with gender association,,2025.1.1,59.90190464366028,2025-11-19 14h12.47.111657 +0530,
Doctor,masculine,f7.jpg,female,50,50,0,f,1.1504032000084408,None,0,50,50,13,109.54065059999994,,,,,,,,,109.53469970000151,109.54065059999994,110.02706649999891,110.04211719999148,111.02679809999245,111.02679809999245,111.04277960000036,112.17786080000224,f,1.1504032000084408,None,,,Subject_01,001,2025-11-19_14h12.35.360,Semantic priming with gender association,,2025.1.1,59.90190464366028,2025-11-19 14h12.47.111657 +0530,
Babysitter,feminine,f1.jpg,female,51,51,0,f,0.9478256000002148,None,0,51,51,21,112.19417879999673,,,,,,,,,112.18603519999306,112.19417879999673,112.67765480000526,112.69423029999598,113.67856549999851,113.67856549999851,113.67856549999851,114.6301514999941,f,0.9478256000002148,None,,,Subject_01,001,2025-11-19_14h12.35.360,Semantic priming with gender association,,2025.1.1,59.90190464366028,2025-11-19 14h12.47.111657 +0530,
Ballerina,feminine,m10.jpg,male,52,52,0,m,0.6827710999932606,None,0,52,52,18,114.6817982999928,,,,,,,,,114.66158780000114,114.6817982999928,115.13221899999189,115.19856039999286,116.13346230000025,116.13346230000025,116.13346230000025,116.81716609999421,m,0.6827710999932606,None,,,Subject_01,001,2025-11-19_14h12.35.360,Semantic priming with gender association,,2025.1.1,59.90190464366028,2025-11-19 14h12.47.111657 +0530,
Librarian,feminine,m5.jpeg,male,53,53,0,m,1.0624432999902638,None,0,53,53,28,116.83252739999443,,,,,,,,,116.82347909999953,116.83252739999443,117.31864709999354,117.33320979999553,118.31792319999659,118.31792319999659,118.31792319999659,119.38478359999135,m,1.0624432999902638,None,,,Subject_01,001,2025-11-19_14h12.35.360,Semantic priming with gender association,,2025.1.1,59.90190464366028,2025-11-19 14h12.47.111657 +0530,
Secretary,feminine,m4.jpg,male,54,0,1,m,0.4559698999946704,None,1,0,54,26,119.4056253000017,,,,,,,,,119.39897199999541,119.4056253000017,119.887292600004,119.9195699999982,120.88769580000371,120.88769580000371,120.88769580000371,121.35490779999236,m,0.4559698999946704,None,,,Subject_01,001,2025-11-19_14h12.35.360,Semantic priming with gender association,,2025.1.1,59.90190464366028,2025-11-19 14h12.47.111657 +0530,
Librarian,feminine,f5.jpeg,female,55,1,1,f,0.6453442000056384,None,1,1,55,29,121.3702387999947,,,,,,,,,121.3611707999953,121.3702387999947,121.85674679999647,121.87099640000088,122.85830859999987,122.85830859999987,122.85830859999987,123.5072344999935,f,0.6453442000056384,None,,,Subject_01,001,2025-11-19_14h12.35.360,Semantic priming with gender association,,2025.1.1,59.90190464366028,2025-11-19 14h12.47.111657 +0530,
Artist,neutral,f10.jpg,female,56,2,1,f,0.9335448999918299,None,1,2,56,39,123.52360699999554,,,,,,,,,123.51717829999689,123.52360699999554,124.0079001999984,124.02457320000394,125.00949969999783,125.00949969999783,125.00949969999783,125.95891919999849,f,0.9335448999918299,None,,,Subject_01,001,2025-11-19_14h12.35.360,Semantic priming with gender association,,2025.1.1,59.90190464366028,2025-11-19 14h12.47.111657 +0530,
Baker,neutral,f7.jpg,female,57,3,1,f,0.5127791999984765,None,1,3,57,53,125.97534219999216,,,,,,,,,125.96610959999089,125.97534219999216,126.46226089999254,126.47704220000014,127.46182329999283,127.46182329999283,127.47929899999872,127.97912609999184,f,0.5127791999984765,None,,,Subject_01,001,2025-11-19_14h12.35.360,Semantic priming with gender association,,2025.1.1,59.90190464366028,2025-11-19 14h12.47.111657 +0530,
Driver,masculine,f6.jpg,female,58,4,1,f,0.41147920000366867,None,1,4,58,11,127.99657149999985,,,,,,,,,127.99016259999189,127.99657149999985,128.4790648000053,128.49598579999292,129.48143529999652,129.48143529999652,129.48143529999652,129.89783859999443,f,0.41147920000366867,None,,,Subject_01,001,2025-11-19_14h12.35.360,Semantic priming with gender association,,2025.1.1,59.90190464366028,2025-11-19 14h12.47.111657 +0530,
Republican,neutral,m5.jpeg,male,59,5,1,m,0.5775086999929044,None,1,5,59,48,129.91382919999887,,,,,,,,,129.90415539999958,129.91382919999887,130.41393769999559,130.41393769999559,131.40086419999716,131.40086419999716,131.41488870000467,131.98521260000416,m,0.5775086999929044,None,,,Subject_01,001,2025-11-19_14h12.35.360,Semantic priming with gender association,,2025.1.1,59.90190464366028,2025-11-19 14h12.47.111657 +0530,
Student,neutral,f2.jpeg,female,60,6,1,f,0.5514097999985097,None,1,6,60,43,131.9981284999958,,,,,,,,,131.99255809999886,131.9981284999958,132.50203259999398,132.50203259999398,133.48444359999849,133.48444359999849,133.50116519999574,134.03696299999137,f,0.5514097999985097,None,,,Subject_01,001,2025-11-19_14h12.35.360,Semantic priming with gender association,,2025.1.1,59.90190464366028,2025-11-19 14h12.47.111657 +0530,
Homemaker,feminine,m2.jpg,male,61,7,1,m,0.7008650000061607,None,1,7,61,22,134.0559787999955,,,,,,,,,134.05017750000115,134.0559787999955,134.5542604999937,134.56852190000063,135.53691280000203,135.53691280000203,135.55474259999755,136.2552258999931,m,0.7008650000061607,None,,,Subject_01,001,2025-11-19_14h12.35.360,Semantic priming with gender association,,2025.1.1,59.90190464366028,2025-11-19 14h12.47.111657 +0530,
Nurse,feminine,f3.jpg,female,62,8,1,f,0.5153565000073286,None,1,8,62,25,136.31396260000474,,,,,,,,,136.29880229999253,136.31396260000474,136.75611079999362,136.82403459999477,137.75774739999906,137.75774739999906,137.75774739999906,138.274757399995,f,0.5153565000073286,None,,,Subject_01,001,2025-11-19_14h12.35.360,Semantic priming with gender association,,2025.1.1,59.90190464366028,2025-11-19 14h12.47.111657 +0530,
Artist,neutral,m10.jpg,male,63,9,1,m,0.36659280001185834,None,1,9,63,38,138.3198856999952,,,,,,,,,138.30798470000445,138.3198856999952,138.79230529999768,138.8249938999943,139.77483130000473,139.77483130000473,139.79291329999978,140.14235120000376,m,0.36659280001185834,None,,,Subject_01,001,2025-11-19_14h12.35.360,Semantic priming with gender association,,2025.1.1,59.90190464366028,2025-11-19 14h12.47.111657 +0530,
Doctor,masculine,f7.jpg,female,64,10,1,f,0.5716289999982109,None,1,10,64,13,140.15825999999652,,,,,,,,,140.15123829999357,140.15825999999652,140.64400919999753,140.65838720000465,141.64313270000275,141.64313270000275,141.64313270000275,142.22801769999205,f,0.5716289999982109,None,,,Subject_01,001,2025-11-19_14h12.35.360,Semantic priming with gender association,,2025.1.1,59.90190464366028,2025-11-19 14h12.47.111657 +0530,
Reporter,neutral,f3.jpg,female,65,11,1,f,1.0062727000040468,None,1,11,65,45,142.28488809999544,,,,,,,,,142.26889920000394,142.28488809999544,142.72825040000316,142.79782239999622,143.7309449000022,143.7309449000022,143.7309449000022,144.74705769999127,f,1.0062727000040468,None,,,Subject_01,001,2025-11-19_14h12.35.360,Semantic priming with gender association,,2025.1.1,59.90190464366028,2025-11-19 14h12.47.111657 +0530,
Blacksmith,masculine,m9.png,male,66,12,1,m,0.575577700001304,None,1,12,66,16,144.80108219999238,,,,,,,,,144.79108179999457,144.80108219999238,145.24714289999974,145.3138728999911,146.2493545000034,146.2493545000034,146.2493545000034,146.83274430000165,m,0.575577700001304,None,,,Subject_01,001,2025-11-19_14h12.35.360,Semantic priming with gender association,,2025.1.1,59.90190464366028,2025-11-19 14h12.47.111657 +0530,
Airshostess,feminine,m6.jpg,male,67,13,1,m,8.247908800010919,None,1,13,67,30,146.85189849999733,,,,,,,,,146.84486189999734,146.85189849999733,147.33208140000352,147.36709390000033,148.33559349999996,148.33559349999996,148.33559349999996,156.5947157000046,m,8.247908800010919,None,,,Subject_01,001,2025-11-19_14h12.35.360,Semantic priming with gender association,,2025.1.1,59.90190464366028,2025-11-19 14h12.47.111657 +0530,
Interpreter,neutral,f6.jpg,female,68,14,1,f,0.4996811000019079,None,1,14,68,51,156.6135968000017,,,,,,,,,156.60696669999743,156.6135968000017,157.11052380000183,157.12665199999174,158.09690469999623,158.09690469999623,158.11166189999494,158.6113292999944,f,0.4996811000019079,None,,,Subject_01,001,2025-11-19_14h12.35.360,Semantic priming with gender association,,2025.1.1,59.90190464366028,2025-11-19 14h12.47.111657 +0530,
Lawyer,masculine,m5.jpeg,male,69,15,1,m,0.46790730000066105,None,1,15,69,8,158.63032579999708,,,,,,,,,158.61763890000293,158.63032579999708,159.11492199999338,159.12876900000265,160.11393199999293,160.11393199999293,160.11393199999293,160.58328419999452,m,0.46790730000066105,None,,,Subject_01,001,2025-11-19_14h12.35.360,Semantic priming with gender association,,2025.1.1,59.90190464366028,2025-11-19 14h12.47.111657 +0530,
Democrat,neutral,m4.jpg,male,70,16,1,m,0.5258684000000358,None,1,16,70,46,160.60267160000512,,,,,,,,,160.59643150000193,160.60267160000512,161.08133349999844,161.1159903999942,162.08477349999885,162.08477349999885,162.08477349999885,162.61712700000498,m,0.5258684000000358,None,,,Subject_01,001,2025-11-19_14h12.35.360,Semantic priming with gender association,,2025.1.1,59.90190464366028,2025-11-19 14h12.47.111657 +0530,
Prostitute,feminine,m8.jpg,male,71,17,1,m,0.7085646000050474,None,1,17,71,34,162.63362779999443,,,,,,,,,162.62452969999867,162.63362779999443,163.13523729999724,163.13523729999724,164.12017229999765,164.12017229999765,164.13441159999638,164.83465809999325,m,0.7085646000050474,None,,,Subject_01,001,2025-11-19_14h12.35.360,Semantic priming with gender association,,2025.1.1,59.90190464366028,2025-11-19 14h12.47.111657 +0530,
Banker,masculine,m2.jpg,male,72,18,1,m,0.5076089000067441,None,1,18,72,2,164.85332399999606,,,,,,,,,164.84714430000167,164.85332399999606,165.3375740999909,165.35072570000193,166.33762579999166,166.33762579999166,166.33762579999166,166.8560284999985,m,0.5076089000067441,None,,,Subject_01,001,2025-11-19_14h12.35.360,Semantic priming with gender association,,2025.1.1,59.90190464366028,2025-11-19 14h12.47.111657 +0530,
Student,neutral,m2.jpg,male,73,19,1,m,0.4155634999915492,None,1,19,73,42,166.87498579999374,,,,,,,,,166.86944959999528,166.87498579999374,167.37325999999302,167.3881512999942,168.354803299997,168.354803299997,168.39105469999777,168.77231380000012,m,0.4155634999915492,None,,,Subject_01,001,2025-11-19_14h12.35.360,Semantic priming with gender association,,2025.1.1,59.90190464366028,2025-11-19 14h12.47.111657 +0530,
Teacher,feminine,f7.jpg,female,74,20,1,f,0.7145374999963678,None,1,20,74,33,168.78982489999908,,,,,,,,,168.78009200000088,168.78982489999908,169.27343210000254,169.2902882000053,170.2764743000007,170.2764743000007,170.2764743000007,170.99293279999983,f,0.7145374999963678,None,,,Subject_01,001,2025-11-19_14h12.35.360,Semantic priming with gender association,,2025.1.1,59.90190464366028,2025-11-19 14h12.47.111657 +0530,
Nanny,feminine,f9.jpg,female,75,21,1,f,0.4509686999954283,None,1,21,75,37,171.01025500000105,,,,,,,,,171.00444779999088,171.01025500000105,171.50842859999102,171.50842859999102,172.4947070999915,172.4947070999915,172.51161000000138,172.96241730000474,f,0.4509686999954283,None,,,Subject_01,001,2025-11-19_14h12.35.360,Semantic priming with gender association,,2025.1.1,59.90190464366028,2025-11-19 14h12.47.111657 +0530,
Interpreter,neutral,m6.jpg,male,76,22,1,m,0.7166188999981387,None,1,22,76,50,172.9778468000004,,,,,,,,,172.97191249999742,172.9778468000004,173.46135050000157,173.47999710000295,174.46220890000404,174.46220890000404,174.46220890000404,175.18116629999713,m,0.7166188999981387,None,,,Subject_01,001,2025-11-19_14h12.35.360,Semantic priming with gender association,,2025.1.1,59.90190464366028,2025-11-19 14h12.47.111657 +0530,
Engineer,masculine,m3.jpg,male,77,23,1,m,0.4650328999996418,None,1,23,77,4,175.20074190000014,,,,,,,,,175.19471989999874,175.20074190000014,175.68124599999283,175.71513949999644,176.68250629999966,176.68250629999966,176.68250629999966,177.14903509999567,m,0.4650328999996418,None,,,Subject_01,001,2025-11-19_14h12.35.360,Semantic priming with gender association,,2025.1.1,59.90190464366028,2025-11-19 14h12.47.111657 +0530,
Teacher,feminine,m7.jpg,male,78,24,1,m,0.5124933999904897,None,1,24,78,32,177.16521099999954,,,,,,,,,177.15874509999412,177.16521099999954,177.64898569999787,177.66657439999108,178.65098950000538,178.65098950000538,178.65098950000538,179.17025199999625,m,0.5124933999904897,None,,,Subject_01,001,2025-11-19_14h12.35.360,Semantic priming with gender association,,2025.1.1,59.90190464366028,2025-11-19 14h12.47.111657 +0530,
Mechanic,masculine,f1.jpg,female,79,25,1,f,0.7607692000019597,None,1,25,79,1,179.1833508999989,,,,,,,,,179.17670719999296,179.1833508999989,179.6850157000008,179.6850157000008,180.68809229999897,180.68809229999897,180.68809229999897,181.4533933999919,f,0.7607692000019597,None,,,Subject_01,001,2025-11-19_14h12.35.360,Semantic priming with gender association,,2025.1.1,59.90190464366028,2025-11-19 14h12.47.111657 +0530,
Reporter,neutral,m3.jpg,male,80,26,1,m,0.43734410000615753,None,1,26,80,44,181.4705799999938,,,,,,,,,181.464905300003,181.4705799999938,181.95561360000283,181.97315959999105,182.9568916999997,182.9568916999997,182.9568916999997,183.40527770000335,m,0.43734410000615753,None,,,Subject_01,001,2025-11-19_14h12.35.360,Semantic priming with gender association,,2025.1.1,59.90190464366028,2025-11-19 14h12.47.111657 +0530,
Mechanic,masculine,m1.jpg,male,81,27,1,m,0.525141199992504,None,1,27,81,0,183.42317009999533,,,,,,,,,183.41732569999294,183.42317009999533,183.90797889999521,183.92273989999376,184.9075462000037,184.9075462000037,184.9075462000037,185.44276819999504,m,0.525141199992504,None,,,Subject_01,001,2025-11-19_14h12.35.360,Semantic priming with gender association,,2025.1.1,59.90190464366028,2025-11-19 14h12.47.111657 +0530,
Author,neutral,f1.jpg,female,82,28,1,f,0.5198405999981333,None,1,28,82,41,185.4600536999933,,,,,,,,,185.450079000002,185.4600536999933,185.96129839999776,185.97521229999256,186.94308299999102,186.94308299999102,186.9766027000005,187.47889820000273,f,0.5198405999981333,None,,,Subject_01,001,2025-11-19_14h12.35.360,Semantic priming with gender association,,2025.1.1,59.90190464366028,2025-11-19 14h12.47.111657 +0530,
Driver,masculine,m6.jpg,male,83,29,1,m,0.5272354000044288,None,1,29,83,10,187.4949321000022,,,,,,,,,187.48824979999335,187.4949321000022,187.97724500000186,188.01149190000433,188.9798332999926,188.9798332999926,188.9798332999926,189.51339019999432,m,0.5272354000044288,None,,,Subject_01,001,2025-11-19_14h12.35.360,Semantic priming with gender association,,2025.1.1,59.90190464366028,2025-11-19 14h12.47.111657 +0530,
Librarian,feminine,m5.jpeg,male,84,30,1,m,0.43286410000291653,None,1,30,84,28,189.52936719999707,,,,,,,,,189.5185649999912,189.52936719999707,190.01160769999842,190.0479287999915,191.01571910000348,191.01571910000348,191.01571910000348,191.46478110000317,m,0.43286410000291653,None,,,Subject_01,001,2025-11-19_14h12.35.360,Semantic priming with gender association,,2025.1.1,59.90190464366028,2025-11-19 14h12.47.111657 +0530,
Prostitute,feminine,f8.jpeg,female,85,31,1,f,0.6494134000095073,None,1,31,85,35,191.48062960000243,,,,,,,,,191.47541210000054,191.48062960000243,191.96701179999218,191.98094379999384,192.9681253000017,192.9681253000017,192.9681253000017,193.63491700000304,f,0.6494134000095073,None,,,Subject_01,001,2025-11-19_14h12.35.360,Semantic priming with gender association,,2025.1.1,59.90190464366028,2025-11-19 14h12.47.111657 +0530,
Ballerina,feminine,f10.jpg,female,86,32,1,f,0.5775213000015356,None,1,32,86,19,193.65020289999666,,,,,,,,,193.64493919999222,193.65020289999666,194.134833899996,194.15246209999896,195.13552899999195,195.13552899999195,195.13552899999195,195.71986610000022,f,0.5775213000015356,None,,,Subject_01,001,2025-11-19_14h12.35.360,Semantic priming with gender association,,2025.1.1,59.90190464366028,2025-11-19 14h12.47.111657 +0530,
Blacksmith,masculine,f9.jpg,female,87,33,1,f,0.4893729999894276,None,1,33,87,17,195.7374462000007,,,,,,,,,195.73145999999542,195.7374462000007,196.22083479999856,196.23856759999762,197.22118649999902,197.22118649999902,197.23864609999873,197.72379309999815,f,0.4893729999894276,None,,,Subject_01,001,2025-11-19_14h12.35.360,Semantic priming with gender association,,2025.1.1,59.90190464366028,2025-11-19 14h12.47.111657 +0530,
Hunter,masculine,m4.jpg,male,88,34,1,m,0.8466257000109181,None,1,34,88,6,197.74333409999963,,,,,,,,,197.7376324999932,197.74333409999963,198.23892489999707,198.2563999999984,199.2247442999942,199.2247442999942,199.23989759999677,200.07310769999458,m,0.8466257000109181,None,,,Subject_01,001,2025-11-19_14h12.35.360,Semantic priming with gender association,,2025.1.1,59.90190464366028,2025-11-19 14h12.47.111657 +0530,
Pilot,masculine,f8.jpeg,female,89,35,1,f,1.091935200005537,None,1,35,89,15,200.09041979999165,,,,,,,,,200.08264199999394,200.09041979999165,200.57533289999992,200.59280169999693,201.57583269999304,201.57583269999304,201.57583269999304,202.6781895000022,f,1.091935200005537,None,,,Subject_01,001,2025-11-19_14h12.35.360,Semantic priming with gender association,,2025.1.1,59.90190464366028,2025-11-19 14h12.47.111657 +0530,
Pilot,masculine,m8.jpg,male,90,36,1,m,0.4484477999940282,None,1,36,90,14,202.69606639999256,,,,,,,,,202.6830098999926,202.69606639999256,203.19458100000338,203.21111469999596,204.17852659999335,204.17852659999335,204.19684010000492,204.6297743000032,m,0.4484477999940282,None,,,Subject_01,001,2025-11-19_14h12.35.360,Semantic priming with gender association,,2025.1.1,59.90190464366028,2025-11-19 14h12.47.111657 +0530,
Airshostess,feminine,f6.jpg,female,91,37,1,f,0.5982615000102669,None,1,37,91,31,204.6479488000041,,,,,,,,,204.64141749999544,204.6479488000041,205.14762150000024,205.1617217000021,206.13032579999708,206.13032579999708,206.1474307000026,206.7337872999924,f,0.5982615000102669,None,,,Subject_01,001,2025-11-19_14h12.35.360,Semantic priming with gender association,,2025.1.1,59.90190464366028,2025-11-19 14h12.47.111657 +0530,
Babysitter,feminine,m1.jpg,male,92,38,1,m,0.3853882999974303,None,1,38,92,20,206.7507581999962,,,,,,,,,206.74430469999788,206.7507581999962,207.23470899999666,207.24798109999392,208.23304690000077,208.23304690000077,208.24918759999855,208.63463610000326,m,0.3853882999974303,None,,,Subject_01,001,2025-11-19_14h12.35.360,Semantic priming with gender association,,2025.1.1,59.90190464366028,2025-11-19 14h12.47.111657 +0530,
Engineer,masculine,f3.jpg,female,93,39,1,f,0.707690300012473,None,1,39,93,5,208.69055499999376,,,,,,,,,208.679126300005,208.69055499999376,209.15049379999982,209.2003926000034,210.13797909999266,210.13797909999266,210.15265770000406,210.85427899999195,f,0.707690300012473,None,,,Subject_01,001,2025-11-19_14h12.35.360,Semantic priming with gender association,,2025.1.1,59.90190464366028,2025-11-19 14h12.47.111657 +0530,
Homemaker,feminine,f2.jpeg,female,94,40,1,f,0.6929445999994641,None,1,40,94,23,210.86892789999547,,,,,,,,,210.86286670000118,210.86892789999547,211.3527860000031,211.36991520000447,212.35520190000534,212.35520190000534,212.35520190000534,213.05567590000283,f,0.6929445999994641,None,,,Subject_01,001,2025-11-19_14h12.35.360,Semantic priming with gender association,,2025.1.1,59.90190464366028,2025-11-19 14h12.47.111657 +0530,
Hunter,masculine,f4.jpg,female,95,41,1,m,0.7620484000071883,None,1,41,95,7,213.07476200000383,,,,,,,,,213.06859460000123,213.07476200000383,213.55649149999954,213.58847629999218,214.5582723999978,214.5582723999978,214.5582723999978,215.32368600000336,m,0.7620484000071883,None,,,Subject_01,001,2025-11-19_14h12.35.360,Semantic priming with gender association,,2025.1.1,59.90190464366028,2025-11-19 14h12.47.111657 +0530,
Secretary,feminine,f4.jpg,female,96,42,1,f,1.058794199998374,None,1,42,96,27,215.339762100004,,,,,,,,,215.332925900002,215.339762100004,215.8244471999933,215.84058570000343,216.82744989999628,216.82744989999628,216.82744989999628,217.89379729999928,f,1.058794199998374,None,,,Subject_01,001,2025-11-19_14h12.35.360,Semantic priming with gender association,,2025.1.1,59.90190464366028,2025-11-19 14h12.47.111657 +0530,
Doctor,masculine,m7.jpg,male,97,43,1,m,0.5609433999925386,None,1,43,97,12,217.91155699999945,,,,,,,,,217.90470600000117,217.91155699999945,218.3931481000036,218.42671079999127,219.39550929999677,219.39550929999677,219.39550929999677,219.9626583999925,m,0.5609433999925386,None,,,Subject_01,001,2025-11-19_14h12.35.360,Semantic priming with gender association,,2025.1.1,59.90190464366028,2025-11-19 14h12.47.111657 +0530,
Democrat,neutral,f4.jpg,female,98,44,1,f,0.7205658000020776,None,1,44,98,47,219.9784670999943,,,,,,,,,219.9725357999996,219.9784670999943,220.46212129999185,220.47887849999825,221.4643658999994,221.4643658999994,221.4643658999994,222.2015046000015,f,0.7205658000020776,None,,,Subject_01,001,2025-11-19_14h12.35.360,Semantic priming with gender association,,2025.1.1,59.90190464366028,2025-11-19 14h12.47.111657 +0530,
Baker,neutral,m7.jpg,male,99,45,1,f,0.6623069999914151,None,1,45,99,52,222.21726059999492,,,,,,,,,222.21130419999827,222.21726059999492,222.71597380000458,222.71597380000458,223.71681250000256,223.71681250000256,223.71681250000256,224.38756149999972,f,0.6623069999914151,None,,,Subject_01,001,2025-11-19_14h12.35.360,Semantic priming with gender association,,2025.1.1,59.90190464366028,2025-11-19 14h12.47.111657 +0530,
Author,neutral,m1.jpg,male,100,46,1,m,0.6181061999959638,None,1,46,100,40,224.40340999999898,,,,,,,,,224.3969575999945,224.40340999999898,224.90082819999952,224.90082819999952,225.90271870000288,225.90271870000288,225.90271870000288,226.5381699999998,m,0.6181061999959638,None,,,Subject_01,001,2025-11-19_14h12.35.360,Semantic priming with gender association,,2025.1.1,59.90190464366028,2025-11-19 14h12.47.111657 +0530,
Ballerina,feminine,m10.jpg,male,101,47,1,m,0.568694300003699,None,1,47,101,18,226.58249400000204,,,,,,,,,226.56895849999273,226.58249400000204,227.0383434999967,227.08797359999153,228.0555555000028,228.0555555000028,228.0555555000028,228.6402883999981,m,0.568694300003699,None,,,Subject_01,001,2025-11-19_14h12.35.360,Semantic priming with gender association,,2025.1.1,59.90190464366028,2025-11-19 14h12.47.111657 +0530,
Lawyer,masculine,f5.jpeg,female,102,48,1,f,0.49278319999575615,None,1,48,102,9,228.6542136999924,,,,,,,,,228.64678670000285,228.6542136999924,229.141406499999,229.15471109999635,230.14181810000446,230.14181810000446,230.1568372000038,230.64178730000276,f,0.49278319999575615,None,,,Subject_01,001,2025-11-19_14h12.35.360,Semantic priming with gender association,,2025.1.1,59.90190464366028,2025-11-19 14h12.47.111657 +0530,
Nurse,feminine,m3.jpg,male,103,49,1,m,0.7942888000106905,None,1,49,103,24,230.66167439999117,,,,,,,,,230.65503680000256,230.66167439999117,231.14140330000373,231.1766379000037,232.1463700000022,232.1463700000022,232.1463700000022,232.94369289999304,m,0.7942888000106905,None,,,Subject_01,001,2025-11-19_14h12.35.360,Semantic priming with gender association,,2025.1.1,59.90190464366028,2025-11-19 14h12.47.111657 +0530,
Republican,neutral,f5.jpeg,female,104,50,1,f,0.6574151999957394,None,1,50,104,49,232.95952789999137,,,,,,,,,232.95070020000276,232.95952789999137,233.4447208999918,233.45901599999343,234.4466512999934,234.4466512999934,234.4466512999934,235.11394739999378,f,0.6574151999957394,None,,,Subject_01,001,2025-11-19_14h12.35.360,Semantic priming with gender association,,2025.1.1,59.90190464366028,2025-11-19 14h12.47.111657 +0530,
Banker,masculine,f2.jpeg,female,105,51,1,f,0.5466377999982797,None,1,51,105,3,235.1281253999914,,,,,,,,,235.12234230000468,235.1281253999914,235.62939899999765,235.62939899999765,236.63289910000458,236.63289910000458,236.63289910000458,237.1842930999992,f,0.5466377999982797,None,,,Subject_01,001,2025-11-19_14h12.35.360,Semantic priming with gender association,,2025.1.1,59.90190464366028,2025-11-19 14h12.47.111657 +0530,
Nanny,feminine,m9.png,male,106,52,1,m,0.6384613999980502,None,1,52,106,36,237.24050830000488,,,,,,,,,237.22612009999284,237.24050830000488,237.69946599999093,237.74996319999627,238.68431870000495,238.68431870000495,238.69873289999668,239.33450349999475,m,0.6384613999980502,None,,,Subject_01,001,2025-11-19_14h12.35.360,Semantic priming with gender association,,2025.1.1,59.90190464366028,2025-11-19 14h12.47.111657 +0530,
Babysitter,feminine,f1.jpg,female,107,53,1,f,0.4046949999901699,None,1,53,107,21,239.3501210999966,,,,,,,,,239.34237119999307,239.3501210999966,239.8362613999925,239.85040179999487,240.835307500005,240.835307500005,240.835307500005,241.25282710000465,f,0.4046949999901699,None,,,Subject_01,001,2025-11-19_14h12.35.360,Semantic priming with gender association,,2025.1.1,59.90190464366028,2025-11-19 14h12.47.111657 +0530,
,,,,,,,,,,,,,,,,,,,,,,,,,,,,,,,,,,241.25302229999215,241.2681692000042,,,,,,,,,
