prime_word,prime_gender,target_image,target_gender,thisN,thisTrialN,thisRepN,key_resp.keys,key_resp.rt,key_resp.duration,trials.thisRepN,trials.thisTrialN,trials.thisN,trials.thisIndex,thisRow.t,notes,Instructions.started,text_2.started,key_resp_2.started,Instructions.stopped,key_resp_2.keys,key_resp_2.rt,key_resp_2.duration,trial.started,fixation.started,prime.started,fixation.stopped,prime.stopped,target_picture.started,key_resp.started,trial.stopped,trials.key_resp.keys,trials.key_resp.rt,trials.key_resp.duration,Thankyou.started,text.started,participant,session,date,expName,expVersion,psychopyVersion,frameRate,expStart,
,,,,,,,,,,,,,,,,0.0035398000036366284,0.0166738000116311,0.0166738000116311,22.073075200023595,space,21.929419000050984,None,,,,,,,,,,,,,,Subject_02,001,2025-11-23_15h33.16.272,Semantic priming with gender association,,2025.1.1,59.607046498367,2025-11-23 15h33.53.272755 +0530,
Interpreter,neutral,m6.jpg,male,0,0,0,m,1.445708299987018,None,0,0,0,50,22.159831100027077,,,,,,,,,22.14911589998519,22.159831100027077,22.574184700031765,22.674360600009095,23.574714299989864,23.574714299989864,23.574714299989864,25.02710130001651,m,1.445708299987018,None,,,Subject_02,001,2025-11-23_15h33.16.272,Semantic priming with gender association,,2025.1.1,59.607046498367,2025-11-23 15h33.53.272755 +0530,
Reporter,neutral,f3.jpg,female,1,1,0,f,1.2440650000353344,None,0,1,1,45,25.128699099994265,,,,,,,,,25.093029899988323,25.128699099994265,25.527619300002698,25.644259600027,26.528607000014745,26.528607000014745,26.528607000014745,27.780860500002746,f,1.2440650000353344,None,,,Subject_02,001,2025-11-23_15h33.16.272,Semantic priming with gender association,,2025.1.1,59.607046498367,2025-11-23 15h33.53.272755 +0530,
Engineer,masculine,m3.jpg,male,2,2,0,m,0.6912803000304848,None,0,2,2,4,27.82842289999826,,,,,,,,,27.823399299988523,27.82842289999826,28.280583499989007,28.33084870001767,29.281577299989294,29.281577299989294,29.281577299989294,29.983127299987245,m,0.6912803000304848,None,,,Subject_02,001,2025-11-23_15h33.16.272,Semantic priming with gender association,,2025.1.1,59.607046498367,2025-11-23 15h33.53.272755 +0530,
Homemaker,feminine,m2.jpg,male,3,3,0,m,0.7678526999661699,None,0,3,3,22,30.023610300035216,,,,,,,,,30.018334400025196,30.023610300035216,30.483012599986978,30.533183499996085,31.484668000019155,31.484668000019155,31.484668000019155,32.26873070001602,m,0.7678526999661699,None,,,Subject_02,001,2025-11-23_15h33.16.272,Semantic priming with gender association,,2025.1.1,59.607046498367,2025-11-23 15h33.53.272755 +0530,
Nanny,feminine,f9.jpg,female,4,4,0,f,0.5077286000014283,None,0,4,4,37,32.30053860001499,,,,,,,,,32.294585400028154,32.30053860001499,32.76901240000734,32.801789099990856,33.7701390000293,33.7701390000293,33.7701390000293,34.288336400000844,f,0.5077286000014283,None,,,Subject_02,001,2025-11-23_15h33.16.272,Semantic priming with gender association,,2025.1.1,59.607046498367,2025-11-23 15h33.53.272755 +0530,
Secretary,feminine,f4.jpg,female,5,5,0,f,0.48220369999762625,None,0,5,5,27,34.31603039999027,,,,,,,,,34.311091999989,34.31603039999027,34.78753129998222,34.82096620002994,35.78954480000539,35.78954480000539,35.78954480000539,36.27268809999805,f,0.48220369999762625,None,,,Subject_02,001,2025-11-23_15h33.16.272,Semantic priming with gender association,,2025.1.1,59.607046498367,2025-11-23 15h33.53.272755 +0530,
Pilot,masculine,f8.jpeg,female,6,6,0,f,0.4396685999818146,None,0,6,6,15,36.30558480002219,,,,,,,,,36.30013139999937,36.30558480002219,36.77280779997818,36.80623769998783,37.77451580000343,37.77451580000343,37.77451580000343,38.225133100000676,f,0.4396685999818146,None,,,Subject_02,001,2025-11-23_15h33.16.272,Semantic priming with gender association,,2025.1.1,59.607046498367,2025-11-23 15h33.53.272755 +0530,
Nurse,feminine,m3.jpg,male,7,7,0,m,0.6320541999884881,None,0,7,7,24,38.24365249997936,,,,,,,,,38.23836730001494,38.24365249997936,38.725340500008315,38.758918299979996,39.72633480001241,39.72633480001241,39.72633480001241,40.361032899993006,m,0.6320541999884881,None,,,Subject_02,001,2025-11-23_15h33.16.272,Semantic priming with gender association,,2025.1.1,59.607046498367,2025-11-23 15h33.53.272755 +0530,
Mechanic,masculine,m1.jpg,male,8,8,0,m,0.48701209999853745,None,0,8,8,0,40.389811200031545,,,,,,,,,40.38510499999393,40.389811200031545,40.86128940002527,40.893842399993446,41.862139100034256,41.862139100034256,41.862139100034256,42.363353300024755,m,0.48701209999853745,None,,,Subject_02,001,2025-11-23_15h33.16.272,Semantic priming with gender association,,2025.1.1,59.607046498367,2025-11-23 15h33.53.272755 +0530,
Driver,masculine,m6.jpg,male,9,9,0,m,0.8821231999900192,None,0,9,9,10,42.37923960003536,,,,,,,,,42.374573100009,42.37923960003536,42.86307050002506,42.87987649999559,43.8647996999789,43.8647996999789,43.8647996999789,44.749044199998025,m,0.8821231999900192,None,,,Subject_02,001,2025-11-23_15h33.16.272,Semantic priming with gender association,,2025.1.1,59.607046498367,2025-11-23 15h33.53.272755 +0530,
Babysitter,feminine,f1.jpg,female,10,10,0,f,0.4988656000350602,None,0,10,10,21,44.77620650001336,,,,,,,,,44.77139609999722,44.77620650001336,45.24888430000283,45.28239080001367,46.25027730001602,46.25027730001602,46.25027730001602,46.7513903999934,f,0.4988656000350602,None,,,Subject_02,001,2025-11-23_15h33.16.272,Semantic priming with gender association,,2025.1.1,59.607046498367,2025-11-23 15h33.53.272755 +0530,
Doctor,masculine,m7.jpg,male,11,11,0,m,0.4958306000335142,None,0,11,11,12,46.78123180003604,,,,,,,,,46.77587080001831,46.78123180003604,47.25150100002065,47.28477660001954,48.252501200011466,48.252501200011466,48.252501200011466,48.75310440000612,m,0.4958306000335142,None,,,Subject_02,001,2025-11-23_15h33.16.272,Semantic priming with gender association,,2025.1.1,59.607046498367,2025-11-23 15h33.53.272755 +0530,
Librarian,feminine,m5.jpeg,male,12,12,0,m,0.4403946000384167,None,0,12,12,28,48.77821830002358,,,,,,,,,48.773202000011224,48.77821830002358,49.253616700007115,49.287114100006875,50.25466660002712,50.25466660002712,50.25466660002712,50.7058507000329,m,0.4403946000384167,None,,,Subject_02,001,2025-11-23_15h33.16.272,Semantic priming with gender association,,2025.1.1,59.607046498367,2025-11-23 15h33.53.272755 +0530,
Mechanic,masculine,f1.jpg,female,13,13,0,f,0.573384499992244,None,0,13,13,1,50.72218989999965,,,,,,,,,50.711908900004346,50.72218989999965,51.205974799988326,51.22258450003574,52.20748530002311,52.20748530002311,52.20748530002311,52.79183469997952,f,0.573384499992244,None,,,Subject_02,001,2025-11-23_15h33.16.272,Semantic priming with gender association,,2025.1.1,59.607046498367,2025-11-23 15h33.53.272755 +0530,
Babysitter,feminine,m1.jpg,male,14,14,0,m,0.3534512000042014,None,0,14,14,20,52.80834300001152,,,,,,,,,52.803730299987365,52.80834300001152,53.291368199978024,53.3074106000131,54.292269800032955,54.292269800032955,54.292269800032955,54.660253099980764,m,0.3534512000042014,None,,,Subject_02,001,2025-11-23_15h33.16.272,Semantic priming with gender association,,2025.1.1,59.607046498367,2025-11-23 15h33.53.272755 +0530,
Driver,masculine,f6.jpg,female,15,15,0,f,0.7221862000296824,None,0,15,15,11,54.690838899987284,,,,,,,,,54.68589540000539,54.690838899987284,55.15989260002971,55.193292499985546,56.161135100002866,56.161135100002866,56.161135100002866,56.896190200001,f,0.7221862000296824,None,,,Subject_02,001,2025-11-23_15h33.16.272,Semantic priming with gender association,,2025.1.1,59.607046498367,2025-11-23 15h33.53.272755 +0530,
Author,neutral,m1.jpg,male,16,16,0,m,0.43691009999020025,None,0,16,16,40,56.91264280001633,,,,,,,,,56.90815410000505,56.91264280001633,57.39582799997879,57.413499400019646,58.39696059998823,58.39696059998823,58.39696059998823,58.84749539999757,m,0.43691009999020025,None,,,Subject_02,001,2025-11-23_15h33.16.272,Semantic priming with gender association,,2025.1.1,59.607046498367,2025-11-23 15h33.53.272755 +0530,
Nanny,feminine,m9.png,male,17,17,0,m,1.0699143999954686,None,0,17,17,36,58.936853100021835,,,,,,,,,58.909757999994326,58.936853100021835,59.347449199995026,59.44825790001778,60.348541699990164,60.348541699990164,60.348541699990164,61.435657699999865,m,1.0699143999954686,None,,,Subject_02,001,2025-11-23_15h33.16.272,Semantic priming with gender association,,2025.1.1,59.607046498367,2025-11-23 15h33.53.272755 +0530,
Banker,masculine,f2.jpeg,female,18,18,0,f,0.5346223000087775,None,0,18,18,3,61.46324190002633,,,,,,,,,61.458803199988324,61.46324190002633,61.93406410003081,61.9679600999807,62.93519099999685,62.93519099999685,62.93519099999685,63.48673449998023,f,0.5346223000087775,None,,,Subject_02,001,2025-11-23_15h33.16.272,Semantic priming with gender association,,2025.1.1,59.607046498367,2025-11-23 15h33.53.272755 +0530,
Blacksmith,masculine,m9.png,male,19,19,0,m,0.6868982999585569,None,0,19,19,16,63.53978490002919,,,,,,,,,63.5296917000087,63.53978490002919,63.987681700033136,64.05357789999107,64.98722190002445,64.98722190002445,64.98722190002445,65.68877820001217,m,0.6868982999585569,None,,,Subject_02,001,2025-11-23_15h33.16.272,Semantic priming with gender association,,2025.1.1,59.607046498367,2025-11-23 15h33.53.272755 +0530,
Republican,neutral,f5.jpeg,female,20,20,0,f,0.4543857999960892,None,0,20,20,49,65.71486880001612,,,,,,,,,65.71043630002532,65.71486880001612,66.18866869999329,66.22231789998477,67.19018000003416,67.19018000003416,67.19018000003416,67.65971889998764,f,0.4543857999960892,None,,,Subject_02,001,2025-11-23_15h33.16.272,Semantic priming with gender association,,2025.1.1,59.607046498367,2025-11-23 15h33.53.272755 +0530,
Secretary,feminine,m4.jpg,male,21,21,0,m,0.7043393999920227,None,0,21,21,26,67.69042549998267,,,,,,,,,67.68501200003084,67.69042549998267,68.17504509998253,68.19131249998463,69.17548350000288,69.15881470002932,69.15881470002932,69.87639079999644,m,0.7043393999920227,None,,,Subject_02,001,2025-11-23_15h33.16.272,Semantic priming with gender association,,2025.1.1,59.607046498367,2025-11-23 15h33.53.272755 +0530,
Author,neutral,f1.jpg,female,22,22,0,f,0.514111700002104,None,0,22,22,41,69.89262180001242,,,,,,,,,69.88197970000328,69.89262180001242,70.37638430000516,70.39298810000764,71.37896390003152,71.37896390003152,71.37896390003152,71.89558100001886,f,0.514111700002104,None,,,Subject_02,001,2025-11-23_15h33.16.272,Semantic priming with gender association,,2025.1.1,59.607046498367,2025-11-23 15h33.53.272755 +0530,
Homemaker,feminine,f2.jpeg,female,23,23,0,f,0.5364120999583974,None,0,23,23,23,71.9115843999898,,,,,,,,,71.90425900003174,71.9115843999898,72.39609490003204,72.41320539999288,73.39657729997998,73.39657729997998,73.39657729997998,73.94800030003535,f,0.5364120999583974,None,,,Subject_02,001,2025-11-23_15h33.16.272,Semantic priming with gender association,,2025.1.1,59.607046498367,2025-11-23 15h33.53.272755 +0530,
Hunter,masculine,f4.jpg,female,24,24,0,f,0.5245651999721304,None,0,24,24,7,73.96437250002054,,,,,,,,,73.95703079999657,73.96437250002054,74.4478712999844,74.46446580003249,75.44874180003535,75.44874180003535,75.44874180003535,75.98367500002496,f,0.5245651999721304,None,,,Subject_02,001,2025-11-23_15h33.16.272,Semantic priming with gender association,,2025.1.1,59.607046498367,2025-11-23 15h33.53.272755 +0530,
Ballerina,feminine,m10.jpg,male,25,25,0,m,0.4293053000001237,None,0,25,25,18,76.04408199997852,,,,,,,,,76.03699500003131,76.04408199997852,76.48370550002437,76.55046499997843,77.48459629999707,77.48459629999707,77.48459629999707,77.9187011999893,m,0.4293053000001237,None,,,Subject_02,001,2025-11-23_15h33.16.272,Semantic priming with gender association,,2025.1.1,59.607046498367,2025-11-23 15h33.53.272755 +0530,
Democrat,neutral,f4.jpg,female,26,26,0,f,0.4965839000069536,None,0,26,26,47,77.93550580000738,,,,,,,,,77.92899220000254,77.93550580000738,78.41904070001328,78.43578460003482,79.42007510003168,79.42007510003168,79.42007510003168,79.92107959999703,f,0.4965839000069536,None,,,Subject_02,001,2025-11-23_15h33.16.272,Semantic priming with gender association,,2025.1.1,59.607046498367,2025-11-23 15h33.53.272755 +0530,
Teacher,feminine,m7.jpg,male,27,27,0,m,0.5461438000202179,None,0,27,27,32,79.93670510000084,,,,,,,,,79.93101330002537,79.93670510000084,80.42073509999318,80.43760010000551,81.42190670000855,81.42190670000855,81.42190670000855,81.97314399998868,m,0.5461438000202179,None,,,Subject_02,001,2025-11-23_15h33.16.272,Semantic priming with gender association,,2025.1.1,59.607046498367,2025-11-23 15h33.53.272755 +0530,
Airshostess,feminine,m6.jpg,male,28,28,0,m,0.6935810000286438,None,0,28,28,30,81.98924289998831,,,,,,,,,81.98430060001556,81.98924289998831,82.47291310003493,82.48958609998226,83.4747095000348,83.4747095000348,83.4747095000348,84.17507330002263,m,0.6935810000286438,None,,,Subject_02,001,2025-11-23_15h33.16.272,Semantic priming with gender association,,2025.1.1,59.607046498367,2025-11-23 15h33.53.272755 +0530,
Hunter,masculine,m4.jpg,male,29,29,0,m,0.4244829000090249,None,0,29,29,6,84.19380120001733,,,,,,,,,84.18868940003449,84.19380120001733,84.67636670003412,84.69175830000313,85.67689050000627,85.67689050000627,85.67689050000627,86.11069649999263,m,0.4244829000090249,None,,,Subject_02,001,2025-11-23_15h33.16.272,Semantic priming with gender association,,2025.1.1,59.607046498367,2025-11-23 15h33.53.272755 +0530,
Banker,masculine,m2.jpg,male,30,30,0,m,0.4467433999525383,None,0,30,30,2,86.1272116000182,,,,,,,,,86.1220350000076,86.1272116000182,86.61149849998765,86.62781710003037,87.61202340002637,87.61202340002637,87.61202340002637,88.06331280001905,m,0.4467433999525383,None,,,Subject_02,001,2025-11-23_15h33.16.272,Semantic priming with gender association,,2025.1.1,59.607046498367,2025-11-23 15h33.53.272755 +0530,
Artist,neutral,f10.jpg,female,31,31,0,f,0.666029800020624,None,0,31,31,39,88.10042949998751,,,,,,,,,88.09564230003161,88.10042949998751,88.56337230000645,88.61335639999015,89.56446329999017,89.56446329999017,89.56446329999017,90.23193060001358,f,0.666029800020624,None,,,Subject_02,001,2025-11-23_15h33.16.272,Semantic priming with gender association,,2025.1.1,59.607046498367,2025-11-23 15h33.53.272755 +0530,
Nurse,feminine,f3.jpg,female,32,32,0,f,0.4832025999785401,None,0,32,32,25,90.29020180000225,,,,,,,,,90.27165529999183,90.29020180000225,90.73426380002638,90.79903170000762,91.75043820001883,91.73428089998197,91.73428089998197,92.21811700001126,f,0.4832025999785401,None,,,Subject_02,001,2025-11-23_15h33.16.272,Semantic priming with gender association,,2025.1.1,59.607046498367,2025-11-23 15h33.53.272755 +0530,
Ballerina,feminine,f10.jpg,female,33,33,0,f,0.5679552999790758,None,0,33,33,19,92.23679669998819,,,,,,,,,92.2308069000137,92.23679669998819,92.71796739997808,92.75107410002965,93.71890600002371,93.71890600002371,93.71890600002371,94.30342770001153,f,0.5679552999790758,None,,,Subject_02,001,2025-11-23_15h33.16.272,Semantic priming with gender association,,2025.1.1,59.607046498367,2025-11-23 15h33.53.272755 +0530,
Librarian,feminine,f5.jpeg,female,34,34,0,f,0.39948459999868646,None,0,34,34,29,94.32007539999904,,,,,,,,,94.30787309998414,94.32007539999904,94.80350169999292,94.82021760003408,95.80444310000166,95.80444310000166,95.80444310000166,96.20566540001892,f,0.39948459999868646,None,,,Subject_02,001,2025-11-23_15h33.16.272,Semantic priming with gender association,,2025.1.1,59.607046498367,2025-11-23 15h33.53.272755 +0530,
Lawyer,masculine,f5.jpeg,female,35,35,0,f,0.47330769995460287,None,0,35,35,9,96.22172470000805,,,,,,,,,96.21016379998764,96.22172470000805,96.70554579998134,96.72221969999373,97.70665649999864,97.70665649999864,97.70665649999864,98.19095000001835,f,0.47330769995460287,None,,,Subject_02,001,2025-11-23_15h33.16.272,Semantic priming with gender association,,2025.1.1,59.607046498367,2025-11-23 15h33.53.272755 +0530,
Pilot,masculine,m8.jpg,male,36,36,0,m,0.5018813000060618,None,0,36,36,14,98.22729479998816,,,,,,,,,98.22167820000323,98.22729479998816,98.691043000028,98.74098589998903,99.69221780000953,99.69221780000953,99.69221780000953,100.20980539999437,m,0.5018813000060618,None,,,Subject_02,001,2025-11-23_15h33.16.272,Semantic priming with gender association,,2025.1.1,59.607046498367,2025-11-23 15h33.53.272755 +0530,
Student,neutral,m2.jpg,male,37,37,0,m,0.42863859998760745,None,0,37,37,42,100.22620059998007,,,,,,,,,100.22138270002324,100.22620059998007,100.71016459999373,100.72614280000562,101.7116546999896,101.7116546999896,101.7116546999896,102.14526030002162,m,0.42863859998760745,None,,,Subject_02,001,2025-11-23_15h33.16.272,Semantic priming with gender association,,2025.1.1,59.607046498367,2025-11-23 15h33.53.272755 +0530,
Doctor,masculine,f7.jpg,female,38,38,0,f,1.402077200007625,None,0,38,38,13,102.17098930000793,,,,,,,,,102.16614180000033,102.17098930000793,102.64574380003614,102.67871200002264,103.64682500000345,103.64682500000345,103.64682500000345,105.0651200999855,f,1.402077200007625,None,,,Subject_02,001,2025-11-23_15h33.16.272,Semantic priming with gender association,,2025.1.1,59.607046498367,2025-11-23 15h33.53.272755 +0530,
Baker,neutral,f7.jpg,female,39,39,0,f,0.4885113000054844,None,0,39,39,53,105.08123300003354,,,,,,,,,105.07179090002319,105.08123300003354,105.56475239997962,105.58176510001067,106.5666391000268,106.5666391000268,106.5666391000268,107.06767600000603,f,0.4885113000054844,None,,,Subject_02,001,2025-11-23_15h33.16.272,Semantic priming with gender association,,2025.1.1,59.607046498367,2025-11-23 15h33.53.272755 +0530,
Engineer,masculine,f3.jpg,female,40,40,0,f,0.7259737999993376,None,0,40,40,5,107.12349909998011,,,,,,,,,107.10643240000354,107.12349909998011,107.5674153,107.6338874999783,108.5687453999999,108.5687453999999,108.5687453999999,109.30326100002276,f,0.7259737999993376,None,,,Subject_02,001,2025-11-23_15h33.16.272,Semantic priming with gender association,,2025.1.1,59.607046498367,2025-11-23 15h33.53.272755 +0530,
Reporter,neutral,m3.jpg,male,41,41,0,m,0.5970443999976851,None,0,41,41,44,109.3234268000233,,,,,,,,,109.31735229998594,109.3234268000233,109.80312340002274,109.83640660002129,110.80474970000796,110.80474970000796,110.80474970000796,111.40515649999725,m,0.5970443999976851,None,,,Subject_02,001,2025-11-23_15h33.16.272,Semantic priming with gender association,,2025.1.1,59.607046498367,2025-11-23 15h33.53.272755 +0530,
Baker,neutral,m7.jpg,male,42,42,0,m,0.5597631999989972,None,0,42,42,52,111.42235449998407,,,,,,,,,111.4130288999877,111.42235449998407,111.90588269999716,111.92178939998848,112.9067201000289,112.9067201000289,112.9067201000289,113.47489870002028,m,0.5597631999989972,None,,,Subject_02,001,2025-11-23_15h33.16.272,Semantic priming with gender association,,2025.1.1,59.607046498367,2025-11-23 15h33.53.272755 +0530,
Teacher,feminine,f7.jpg,female,43,43,0,f,0.6178151999483816,None,0,43,43,33,113.49037030001637,,,,,,,,,113.48180459998548,113.49037030001637,113.97468500002287,113.99061720003374,114.9756139999954,114.9756139999954,114.9756139999954,115.5942553000059,f,0.6178151999483816,None,,,Subject_02,001,2025-11-23_15h33.16.272,Semantic priming with gender association,,2025.1.1,59.607046498367,2025-11-23 15h33.53.272755 +0530,
Airshostess,feminine,f6.jpg,female,44,44,0,f,0.7312941999989562,None,0,44,44,31,115.60999020002782,,,,,,,,,115.60498860001098,115.60999020002782,116.09337860002415,116.10995559999719,117.09552810003515,117.09552810003515,117.09552810003515,117.82898769999156,f,0.7312941999989562,None,,,Subject_02,001,2025-11-23_15h33.16.272,Semantic priming with gender association,,2025.1.1,59.607046498367,2025-11-23 15h33.53.272755 +0530,
Interpreter,neutral,f6.jpg,female,45,45,0,f,0.5600739999790676,None,0,45,45,51,117.84523159998935,,,,,,,,,117.83695650001755,117.84523159998935,118.32875400001649,118.34548640000867,119.33093380002538,119.33093380002538,119.33093380002538,119.89830070000608,f,0.5600739999790676,None,,,Subject_02,001,2025-11-23_15h33.16.272,Semantic priming with gender association,,2025.1.1,59.607046498367,2025-11-23 15h33.53.272755 +0530,
Prostitute,feminine,f8.jpeg,female,46,46,0,f,0.9281179999816231,None,0,46,46,35,119.9167045999784,,,,,,,,,119.9115412000101,119.9167045999784,120.39792900002794,120.43128080002498,121.39879960002145,121.39879960002145,121.39879960002145,122.33396790002007,f,0.9281179999816231,None,,,Subject_02,001,2025-11-23_15h33.16.272,Semantic priming with gender association,,2025.1.1,59.607046498367,2025-11-23 15h33.53.272755 +0530,
Republican,neutral,m5.jpeg,male,47,47,0,m,0.5237776999711059,None,0,47,47,48,122.35020950000035,,,,,,,,,122.34019680001074,122.35020950000035,122.83409600000596,122.85086020000745,123.83507840003585,123.83507840003585,123.83507840003585,124.36958559998311,m,0.5237776999711059,None,,,Subject_02,001,2025-11-23_15h33.16.272,Semantic priming with gender association,,2025.1.1,59.607046498367,2025-11-23 15h33.53.272755 +0530,
Student,neutral,f2.jpeg,female,48,48,0,f,0.6690701000043191,None,0,48,48,43,124.38581030000933,,,,,,,,,124.37645600002725,124.38581030000933,124.86999710003147,124.88598580000689,125.87100430001738,125.87100430001738,125.87100430001738,126.55552330001956,f,0.6690701000043191,None,,,Subject_02,001,2025-11-23_15h33.16.272,Semantic priming with gender association,,2025.1.1,59.607046498367,2025-11-23 15h33.53.272755 +0530,
Democrat,neutral,m4.jpg,male,49,49,0,m,0.5283981999964453,None,0,49,49,46,126.5757697999943,,,,,,,,,126.57009940000717,126.5757697999943,127.05565689998912,127.08950599998934,128.0564013000112,128.0564013000112,128.0564013000112,128.591550800018,m,0.5283981999964453,None,,,Subject_02,001,2025-11-23_15h33.16.272,Semantic priming with gender association,,2025.1.1,59.607046498367,2025-11-23 15h33.53.272755 +0530,
Prostitute,feminine,m8.jpg,male,50,50,0,m,1.1141907999990508,None,0,50,50,34,128.60743600002024,,,,,,,,,128.5978037000168,128.60743600002024,129.09080760000506,129.10748180001974,130.09203320002416,130.09203320002416,130.09203320002416,131.211195699987,m,1.1141907999990508,None,,,Subject_02,001,2025-11-23_15h33.16.272,Semantic priming with gender association,,2025.1.1,59.607046498367,2025-11-23 15h33.53.272755 +0530,
Blacksmith,masculine,f9.jpg,female,51,51,0,f,0.5755530000315048,None,0,51,51,17,131.22686310001882,,,,,,,,,131.21981189999497,131.22686310001882,131.71025950001786,131.72738410002785,132.71164290001616,132.71164290001616,132.71164290001616,133.29627719998825,f,0.5755530000315048,None,,,Subject_02,001,2025-11-23_15h33.16.272,Semantic priming with gender association,,2025.1.1,59.607046498367,2025-11-23 15h33.53.272755 +0530,
Artist,neutral,m10.jpg,male,52,52,0,m,0.6910468999994919,None,0,52,52,38,133.3329505000147,,,,,,,,,133.32611790002557,133.3329505000147,133.79634290002286,133.84567760000937,134.797399699979,134.797399699979,134.797399699979,135.49881860002642,m,0.6910468999994919,None,,,Subject_02,001,2025-11-23_15h33.16.272,Semantic priming with gender association,,2025.1.1,59.607046498367,2025-11-23 15h33.53.272755 +0530,
Lawyer,masculine,m5.jpeg,male,53,53,0,m,0.5651232999516651,None,0,53,53,8,135.51470260001952,,,,,,,,,135.50329570000758,135.51470260001952,135.99857150000753,136.01523670001188,136.99960989999818,136.99960989999818,136.99960989999818,137.56688200001372,m,0.5651232999516651,None,,,Subject_02,001,2025-11-23_15h33.16.272,Semantic priming with gender association,,2025.1.1,59.607046498367,2025-11-23 15h33.53.272755 +0530,
Doctor,masculine,m7.jpg,male,54,0,1,m,0.5496819000109099,None,1,0,54,12,137.583671600034,,,,,,,,,137.57749589998275,137.583671600034,138.06738249998307,138.08400720002828,139.06844880001154,139.06844880001154,139.06844880001154,139.61971920001088,m,0.5496819000109099,None,,,Subject_02,001,2025-11-23_15h33.16.272,Semantic priming with gender association,,2025.1.1,59.607046498367,2025-11-23 15h33.53.272755 +0530,
Student,neutral,f2.jpeg,female,55,1,1,f,0.4420555999968201,None,1,1,55,43,139.635920300032,,,,,,,,,139.62631040002452,139.635920300032,140.11984699999448,140.13630880002165,141.12166200001957,141.12166200001957,141.12166200001957,141.57198970002355,f,0.4420555999968201,None,,,Subject_02,001,2025-11-23_15h33.16.272,Semantic priming with gender association,,2025.1.1,59.607046498367,2025-11-23 15h33.53.272755 +0530,
Babysitter,feminine,m1.jpg,male,56,2,1,m,0.5551847000024281,None,1,2,56,20,141.58865940000396,,,,,,,,,141.58040580002125,141.58865940000396,142.07190330000594,142.08890909998445,143.07300059997942,143.07300059997942,143.07300059997942,143.64096440002322,m,0.5551847000024281,None,,,Subject_02,001,2025-11-23_15h33.16.272,Semantic priming with gender association,,2025.1.1,59.607046498367,2025-11-23 15h33.53.272755 +0530,
Baker,neutral,f7.jpg,female,57,3,1,f,0.5220597000443377,None,1,3,57,53,143.6571803999832,,,,,,,,,143.64617090002866,143.6571803999832,144.14089470001636,144.15756710001733,145.1420611999929,145.1420611999929,145.1420611999929,145.67625999997836,f,0.5220597000443377,None,,,Subject_02,001,2025-11-23_15h33.16.272,Semantic priming with gender association,,2025.1.1,59.607046498367,2025-11-23 15h33.53.272755 +0530,
Librarian,feminine,m5.jpeg,male,58,4,1,m,0.5952214000280946,None,1,4,58,28,145.69249590003164,,,,,,,,,145.6818450000137,145.69249590003164,146.17661480000243,146.19398199999705,147.17765610001516,147.17765610001516,147.17765610001516,147.7789290000219,m,0.5952214000280946,None,,,Subject_02,001,2025-11-23_15h33.16.272,Semantic priming with gender association,,2025.1.1,59.607046498367,2025-11-23 15h33.53.272755 +0530,
Republican,neutral,m5.jpeg,male,59,5,1,m,0.7811030999873765,None,1,5,59,48,147.7953325000126,,,,,,,,,147.7839624999906,147.7953325000126,148.2785163000226,148.2953523999895,149.2802246999927,149.2802246999927,149.2802246999927,150.0648913999903,m,0.7811030999873765,None,,,Subject_02,001,2025-11-23_15h33.16.272,Semantic priming with gender association,,2025.1.1,59.607046498367,2025-11-23 15h33.53.272755 +0530,
Teacher,feminine,f7.jpg,female,60,6,1,f,0.4673711999785155,None,1,6,60,33,150.08126679999987,,,,,,,,,150.07063530001324,150.08126679999987,150.5643498999998,150.58082239999203,151.566301200015,151.566301200015,151.566301200015,152.0501757999882,f,0.4673711999785155,None,,,Subject_02,001,2025-11-23_15h33.16.272,Semantic priming with gender association,,2025.1.1,59.607046498367,2025-11-23 15h33.53.272755 +0530,
Mechanic,masculine,m1.jpg,male,61,7,1,m,0.5426025000051595,None,1,7,61,0,152.0666561999824,,,,,,,,,152.05895849998342,152.0666561999824,152.55058480001753,152.56670450000092,153.55191330000525,153.55191330000525,153.55191330000525,154.1023806000012,m,0.5426025000051595,None,,,Subject_02,001,2025-11-23_15h33.16.272,Semantic priming with gender association,,2025.1.1,59.607046498367,2025-11-23 15h33.53.272755 +0530,
Interpreter,neutral,f6.jpg,female,62,8,1,f,0.605464199965354,None,1,8,62,51,154.11966540000867,,,,,,,,,154.1143114999868,154.11966540000867,154.6021444000071,154.6187457999913,155.60332360002212,155.60332360002212,155.60332360002212,156.2217074999935,f,0.605464199965354,None,,,Subject_02,001,2025-11-23_15h33.16.272,Semantic priming with gender association,,2025.1.1,59.607046498367,2025-11-23 15h33.53.272755 +0530,
Pilot,masculine,m8.jpg,male,63,9,1,m,0.5514270999701694,None,1,9,63,14,156.23768640001072,,,,,,,,,156.2280602999963,156.23768640001072,156.7207417000318,156.73802029999206,157.72241580003174,157.72241580003174,157.72241580003174,158.29020679998212,m,0.5514270999701694,None,,,Subject_02,001,2025-11-23_15h33.16.272,Semantic priming with gender association,,2025.1.1,59.607046498367,2025-11-23 15h33.53.272755 +0530,
Driver,masculine,m6.jpg,male,64,10,1,m,0.420617499970831,None,1,10,64,10,158.3065753999981,,,,,,,,,158.299624199979,158.3065753999981,158.7903229999938,158.8067797999829,159.7910031999927,159.7910031999927,159.7910031999927,160.22553659998812,m,0.420617499970831,None,,,Subject_02,001,2025-11-23_15h33.16.272,Semantic priming with gender association,,2025.1.1,59.607046498367,2025-11-23 15h33.53.272755 +0530,
Ballerina,feminine,m10.jpg,male,65,11,1,m,0.36541379999835044,None,1,11,65,18,160.26736509997863,,,,,,,,,160.25986440002453,160.26736509997863,160.72513889998663,160.7752527000266,161.72762000001967,161.72762000001967,161.72762000001967,162.0944045999786,m,0.36541379999835044,None,,,Subject_02,001,2025-11-23_15h33.16.272,Semantic priming with gender association,,2025.1.1,59.607046498367,2025-11-23 15h33.53.272755 +0530,
Reporter,neutral,f3.jpg,female,66,12,1,f,0.5796389000024647,None,1,12,66,45,162.1604654000257,,,,,,,,,162.13562570000067,162.1604654000257,162.59431960002985,162.66079320001882,163.59586810000474,163.59586810000474,163.59586810000474,164.18025809997926,f,0.5796389000024647,None,,,Subject_02,001,2025-11-23_15h33.16.272,Semantic priming with gender association,,2025.1.1,59.607046498367,2025-11-23 15h33.53.272755 +0530,
Babysitter,feminine,f1.jpg,female,67,13,1,f,0.43527669995091856,None,1,13,67,21,164.19579299999168,,,,,,,,,164.1897547999979,164.19579299999168,164.68001770001138,164.69689560000552,165.6812114000204,165.6812114000204,165.6812114000204,166.11845409998205,f,0.43527669995091856,None,,,Subject_02,001,2025-11-23_15h33.16.272,Semantic priming with gender association,,2025.1.1,59.607046498367,2025-11-23 15h33.53.272755 +0530,
Secretary,feminine,f4.jpg,female,68,14,1,f,0.44864019996020943,None,1,14,68,27,166.13824579998618,,,,,,,,,166.1321740000276,166.13824579998618,166.63150190003216,166.64849940000568,167.6336350000347,167.6336350000347,167.6336350000347,168.0845214999863,f,0.44864019996020943,None,,,Subject_02,001,2025-11-23_15h33.16.272,Semantic priming with gender association,,2025.1.1,59.607046498367,2025-11-23 15h33.53.272755 +0530,
Driver,masculine,f6.jpg,female,69,15,1,f,0.49253290001070127,None,1,15,69,11,168.1004580000299,,,,,,,,,168.09408100001747,168.1004580000299,168.58414110000012,168.60095659998478,169.58530909998808,169.58530909998808,169.58530909998808,170.08645709999837,f,0.49253290001070127,None,,,Subject_02,001,2025-11-23_15h33.16.272,Semantic priming with gender association,,2025.1.1,59.607046498367,2025-11-23 15h33.53.272755 +0530,
Baker,neutral,m7.jpg,male,70,16,1,m,0.3684419000055641,None,1,16,70,52,170.10328009998193,,,,,,,,,170.0951797000016,170.10328009998193,170.58629930001916,170.6027541999938,171.58817270002328,171.58817270002328,171.58817270002328,171.97219479997875,m,0.3684419000055641,None,,,Subject_02,001,2025-11-23_15h33.16.272,Semantic priming with gender association,,2025.1.1,59.607046498367,2025-11-23 15h33.53.272755 +0530,
Reporter,neutral,m3.jpg,male,71,17,1,m,0.5428781000082381,None,1,17,71,44,171.98950540000806,,,,,,,,,171.9834992000251,171.98950540000806,172.47164320002776,172.50496350001777,173.47317050001584,173.47317050001584,173.47317050001584,174.02427150000585,m,0.5428781000082381,None,,,Subject_02,001,2025-11-23_15h33.16.272,Semantic priming with gender association,,2025.1.1,59.607046498367,2025-11-23 15h33.53.272755 +0530,
Lawyer,masculine,m5.jpeg,male,72,18,1,m,0.43963469995651394,None,1,18,72,8,174.0399330999935,,,,,,,,,174.02871119999327,174.0399330999935,174.52442620001966,174.54058500000974,175.52580300002592,175.52580300002592,175.52580300002592,175.9760430000024,m,0.43963469995651394,None,,,Subject_02,001,2025-11-23_15h33.16.272,Semantic priming with gender association,,2025.1.1,59.607046498367,2025-11-23 15h33.53.272755 +0530,
Prostitute,feminine,m8.jpg,male,73,19,1,m,0.38069220003671944,None,1,19,73,34,175.99235680000857,,,,,,,,,175.98358090000693,175.99235680000857,176.47624109999742,176.49295970000094,177.47759910003515,177.47759910003515,177.47759910003515,177.86166579998098,m,0.38069220003671944,None,,,Subject_02,001,2025-11-23_15h33.16.272,Semantic priming with gender association,,2025.1.1,59.607046498367,2025-11-23 15h33.53.272755 +0530,
Pilot,masculine,f8.jpeg,female,74,20,1,f,0.4442358000087552,None,1,20,74,15,177.87784139998257,,,,,,,,,177.87123819999397,177.87784139998257,178.36143619997893,178.37808029999724,179.36342800001148,179.36342800001148,179.36342800001148,179.81406200001948,f,0.4442358000087552,None,,,Subject_02,001,2025-11-23_15h33.16.272,Semantic priming with gender association,,2025.1.1,59.607046498367,2025-11-23 15h33.53.272755 +0530,
Ballerina,feminine,f10.jpg,female,75,21,1,f,0.5145311999949627,None,1,21,75,19,179.83034380001482,,,,,,,,,179.82281959999818,179.83034380001482,180.31367579998914,180.3305939999991,181.3148190000211,181.3148190000211,181.3148190000211,181.83286750002299,f,0.5145311999949627,None,,,Subject_02,001,2025-11-23_15h33.16.272,Semantic priming with gender association,,2025.1.1,59.607046498367,2025-11-23 15h33.53.272755 +0530,
Engineer,masculine,f3.jpg,female,76,22,1,f,0.5661155999987386,None,1,22,76,5,181.87785360001726,,,,,,,,,181.8704202999943,181.87785360001726,182.33208490000106,182.38271360000363,183.33630349999294,183.33630349999294,183.33630349999294,183.91886039997917,f,0.5661155999987386,None,,,Subject_02,001,2025-11-23_15h33.16.272,Semantic priming with gender association,,2025.1.1,59.607046498367,2025-11-23 15h33.53.272755 +0530,
Author,neutral,m1.jpg,male,77,23,1,m,0.7936174999922514,None,1,23,77,40,183.9346367000253,,,,,,,,,183.92797309998423,183.9346367000253,184.41864809999242,184.43484750000061,185.41961520002224,185.41961520002224,185.41961520002224,186.2211400999804,m,0.7936174999922514,None,,,Subject_02,001,2025-11-23_15h33.16.272,Semantic priming with gender association,,2025.1.1,59.607046498367,2025-11-23 15h33.53.272755 +0530,
Student,neutral,m2.jpg,male,78,24,1,m,0.7255951999686658,None,1,24,78,42,186.23768530000234,,,,,,,,,186.23132600000827,186.23768530000234,186.72144809999736,186.73738509998657,187.7218065999914,187.7218065999914,187.7218065999914,188.45661870000185,m,0.7255951999686658,None,,,Subject_02,001,2025-11-23_15h33.16.272,Semantic priming with gender association,,2025.1.1,59.607046498367,2025-11-23 15h33.53.272755 +0530,
Mechanic,masculine,f1.jpg,female,79,25,1,f,0.4949738000286743,None,1,25,79,1,188.4730142999906,,,,,,,,,188.46297260001302,188.4730142999906,188.9567846999853,188.97347349999472,189.95786120003322,189.95786120003322,189.95786120003322,190.45883970003342,f,0.4949738000286743,None,,,Subject_02,001,2025-11-23_15h33.16.272,Semantic priming with gender association,,2025.1.1,59.607046498367,2025-11-23 15h33.53.272755 +0530,
Librarian,feminine,f5.jpeg,female,80,26,1,f,0.5662246000138111,None,1,26,80,29,190.47495559998788,,,,,,,,,190.4636518000043,190.47495559998788,190.9587761000148,190.97532080003293,191.96053500002017,191.96053500002017,191.96053500002017,192.52776020002784,f,0.5662246000138111,None,,,Subject_02,001,2025-11-23_15h33.16.272,Semantic priming with gender association,,2025.1.1,59.607046498367,2025-11-23 15h33.53.272755 +0530,
Republican,neutral,f5.jpeg,female,81,27,1,f,0.44948919996386394,None,1,27,81,49,192.54418880003504,,,,,,,,,192.53234540001722,192.54418880003504,193.0277162999846,193.04434209997999,194.02866770001128,194.02866770001128,194.02866770001128,194.47946639999282,f,0.44948919996386394,None,,,Subject_02,001,2025-11-23_15h33.16.272,Semantic priming with gender association,,2025.1.1,59.607046498367,2025-11-23 15h33.53.272755 +0530,
Banker,masculine,m2.jpg,male,82,28,1,m,0.39688489999389276,None,1,28,82,2,194.4966371000046,,,,,,,,,194.4914446999901,194.4966371000046,194.97984430001816,194.9966901000007,195.98089970002184,195.98089970002184,195.98089970002184,196.38217669998994,m,0.39688489999389276,None,,,Subject_02,001,2025-11-23_15h33.16.272,Semantic priming with gender association,,2025.1.1,59.607046498367,2025-11-23 15h33.53.272755 +0530,
Homemaker,feminine,f2.jpeg,female,83,29,1,f,0.38994339999044314,None,1,29,83,23,196.39825840003323,,,,,,,,,196.38933179999003,196.39825840003323,196.88204110000515,196.8988552999799,197.88299090001965,197.88299090001965,197.88299090001965,198.28442320000613,f,0.38994339999044314,None,,,Subject_02,001,2025-11-23_15h33.16.272,Semantic priming with gender association,,2025.1.1,59.607046498367,2025-11-23 15h33.53.272755 +0530,
Artist,neutral,f10.jpg,female,84,30,1,m,0.31435480003710836,None,1,30,84,39,198.30142329999944,,,,,,,,,198.29439930000808,198.30142329999944,198.78408339997986,198.80080179998185,199.78511340002296,199.78511340002296,199.78511340002296,200.10284380003577,m,0.31435480003710836,None,,,Subject_02,001,2025-11-23_15h33.16.272,Semantic priming with gender association,,2025.1.1,59.607046498367,2025-11-23 15h33.53.272755 +0530,
Nurse,feminine,m3.jpg,male,85,31,1,m,0.653303200029768,None,1,31,85,24,200.12012360000517,,,,,,,,,200.11511890002294,200.12012360000517,200.6030211999896,200.61937780003063,201.60400089999894,201.60400089999894,201.60400089999894,202.2713787999819,m,0.653303200029768,None,,,Subject_02,001,2025-11-23_15h33.16.272,Semantic priming with gender association,,2025.1.1,59.607046498367,2025-11-23 15h33.53.272755 +0530,
Author,neutral,f1.jpg,female,86,32,1,f,0.46016850002342835,None,1,32,86,41,202.28837929997826,,,,,,,,,202.2781313000014,202.28837929997826,202.77175980003085,202.78933150001103,203.77301699999953,203.77301699999953,203.77301699999953,204.2407936999807,f,0.46016850002342835,None,,,Subject_02,001,2025-11-23_15h33.16.272,Semantic priming with gender association,,2025.1.1,59.607046498367,2025-11-23 15h33.53.272755 +0530,
Banker,masculine,f2.jpeg,female,87,33,1,f,0.6332826999714598,None,1,33,87,3,204.25668540003244,,,,,,,,,204.24704360001488,204.25668540003244,204.74047210003482,204.7572841999936,205.74187850003364,205.74187850003364,205.74187850003364,206.376343299984,f,0.6332826999714598,None,,,Subject_02,001,2025-11-23_15h33.16.272,Semantic priming with gender association,,2025.1.1,59.607046498367,2025-11-23 15h33.53.272755 +0530,
Lawyer,masculine,f5.jpeg,female,88,34,1,f,0.5153805000009015,None,1,34,88,9,206.39245540002594,,,,,,,,,206.382337499992,206.39245540002594,206.876385200012,206.8931670000311,207.87734750000527,207.87734750000527,207.87734750000527,208.39514720003353,f,0.5153805000009015,None,,,Subject_02,001,2025-11-23_15h33.16.272,Semantic priming with gender association,,2025.1.1,59.607046498367,2025-11-23 15h33.53.272755 +0530,
Engineer,masculine,m3.jpg,male,89,35,1,m,0.5682155999820679,None,1,35,89,4,208.41297240002314,,,,,,,,,208.40817070001503,208.41297240002314,208.89498849998927,208.92850560002262,209.89665190002415,209.89665190002415,209.89665190002415,210.48104400001466,m,0.5682155999820679,None,,,Subject_02,001,2025-11-23_15h33.16.272,Semantic priming with gender association,,2025.1.1,59.607046498367,2025-11-23 15h33.53.272755 +0530,
Blacksmith,masculine,m9.png,male,90,36,1,m,0.7073601000010967,None,1,36,90,16,210.53311249997932,,,,,,,,,210.5242124000215,210.53311249997932,210.98068179999245,211.04815719998442,211.98171750002075,211.98171750002075,211.98171750002075,212.70036240003537,m,0.7073601000010967,None,,,Subject_02,001,2025-11-23_15h33.16.272,Semantic priming with gender association,,2025.1.1,59.607046498367,2025-11-23 15h33.53.272755 +0530,
Teacher,feminine,m7.jpg,male,91,37,1,m,0.5030760999652557,None,1,37,91,32,212.71597810002277,,,,,,,,,212.7099506999948,212.71597810002277,213.19965760002378,213.2164900000207,214.20089670002926,214.20089670002926,214.20089670002926,214.71963860001415,m,0.5030760999652557,None,,,Subject_02,001,2025-11-23_15h33.16.272,Semantic priming with gender association,,2025.1.1,59.607046498367,2025-11-23 15h33.53.272755 +0530,
Democrat,neutral,f4.jpg,female,92,38,1,f,0.5812037999858148,None,1,38,92,47,214.73475000000326,,,,,,,,,214.72836820001248,214.73475000000326,215.23556390003068,215.23556390003068,216.23670780000975,216.21999150002375,216.21999150002375,216.8041040999815,f,0.5812037999858148,None,,,Subject_02,001,2025-11-23_15h33.16.272,Semantic priming with gender association,,2025.1.1,59.607046498367,2025-11-23 15h33.53.272755 +0530,
Interpreter,neutral,m6.jpg,male,93,39,1,m,0.5241038000094704,None,1,39,93,50,216.82156529999338,,,,,,,,,216.8158835999784,216.82156529999338,217.30406350002158,217.32079289999092,218.30521150003187,218.30521150003187,218.30521150003187,218.8398758000112,m,0.5241038000094704,None,,,Subject_02,001,2025-11-23_15h33.16.272,Semantic priming with gender association,,2025.1.1,59.607046498367,2025-11-23 15h33.53.272755 +0530,
Airshostess,feminine,m6.jpg,male,94,40,1,m,0.6094616999616846,None,1,40,94,30,218.8559536000248,,,,,,,,,218.8480795000214,218.8559536000248,219.33949139999459,219.3563144999789,220.34129870001925,220.34129870001925,220.34129870001925,220.95907680003438,m,0.6094616999616846,None,,,Subject_02,001,2025-11-23_15h33.16.272,Semantic priming with gender association,,2025.1.1,59.607046498367,2025-11-23 15h33.53.272755 +0530,
Prostitute,feminine,f8.jpeg,female,95,41,1,f,0.5649622000055388,None,1,41,95,35,220.97498030000133,,,,,,,,,220.96973140002228,220.97498030000133,221.45913050003583,221.47557970002526,222.459671300021,222.459671300021,222.459671300021,223.02768920001108,f,0.5649622000055388,None,,,Subject_02,001,2025-11-23_15h33.16.272,Semantic priming with gender association,,2025.1.1,59.607046498367,2025-11-23 15h33.53.272755 +0530,
Secretary,feminine,m4.jpg,male,96,42,1,m,0.6270704000489786,None,1,42,96,26,223.0463666000287,,,,,,,,,223.04088660003617,223.0463666000287,223.52763840003172,223.56112339999527,224.52927240001736,224.52927240001736,224.52927240001736,225.1638136000256,m,0.6270704000489786,None,,,Subject_02,001,2025-11-23_15h33.16.272,Semantic priming with gender association,,2025.1.1,59.607046498367,2025-11-23 15h33.53.272755 +0530,
Blacksmith,masculine,f9.jpg,female,97,43,1,f,0.5452739000320435,None,1,43,97,17,225.18044570001075,,,,,,,,,225.1755471000215,225.18044570001075,225.66362489998573,225.68042059999425,226.66469629999483,226.66469629999483,226.66469629999483,227.21579350001412,f,0.5452739000320435,None,,,Subject_02,001,2025-11-23_15h33.16.272,Semantic priming with gender association,,2025.1.1,59.607046498367,2025-11-23 15h33.53.272755 +0530,
Nanny,feminine,m9.png,male,98,44,1,m,0.45497969997813925,None,1,44,98,36,227.26558270002715,,,,,,,,,227.25835540000116,227.26558270002715,227.71582099999068,227.76599709998118,228.71688830002677,228.71688830002677,228.71688830002677,229.18444799998542,m,0.45497969997813925,None,,,Subject_02,001,2025-11-23_15h33.16.272,Semantic priming with gender association,,2025.1.1,59.607046498367,2025-11-23 15h33.53.272755 +0530,
Hunter,masculine,m4.jpg,male,99,45,1,m,0.4948269999586046,None,1,45,99,6,229.20075319998432,,,,,,,,,229.19429170002695,229.20075319998432,229.6843789999839,229.7011302000028,230.6860594000318,230.6860594000318,230.6860594000318,231.18695579998894,m,0.4948269999586046,None,,,Subject_02,001,2025-11-23_15h33.16.272,Semantic priming with gender association,,2025.1.1,59.607046498367,2025-11-23 15h33.53.272755 +0530,
Hunter,masculine,f4.jpg,female,100,46,1,f,0.45319949998520315,None,1,46,100,7,231.2032707000035,,,,,,,,,231.1939935000264,231.2032707000035,231.6869863999891,231.7033048000303,232.68784299999243,232.68784299999243,232.68784299999243,233.15519630000927,f,0.45319949998520315,None,,,Subject_02,001,2025-11-23_15h33.16.272,Semantic priming with gender association,,2025.1.1,59.607046498367,2025-11-23 15h33.53.272755 +0530,
Doctor,masculine,f7.jpg,female,101,47,1,f,0.47392439999384806,None,1,47,101,13,233.17159390001325,,,,,,,,,233.16155429999344,233.17159390001325,233.65529770002468,233.67205390002346,234.65708989999257,234.65708989999257,234.65708989999257,235.14101170003414,f,0.47392439999384806,None,,,Subject_02,001,2025-11-23_15h33.16.272,Semantic priming with gender association,,2025.1.1,59.607046498367,2025-11-23 15h33.53.272755 +0530,
Artist,neutral,m10.jpg,male,102,48,1,m,0.4687135000131093,None,1,48,102,38,235.17937410000013,,,,,,,,,235.17263560002903,235.17937410000013,235.64128769998206,235.69150060001994,236.64240730000893,236.64240730000893,236.64240730000893,237.12675190001028,m,0.4687135000131093,None,,,Subject_02,001,2025-11-23_15h33.16.272,Semantic priming with gender association,,2025.1.1,59.607046498367,2025-11-23 15h33.53.272755 +0530,
Nanny,feminine,f9.jpg,female,103,49,1,f,0.5118997999816202,None,1,49,103,37,237.1429255999974,,,,,,,,,237.13682000001427,237.1429255999974,237.62649330002023,237.643022400036,238.6278943999787,238.6278943999787,238.6278943999787,239.14545140002156,f,0.5118997999816202,None,,,Subject_02,001,2025-11-23_15h33.16.272,Semantic priming with gender association,,2025.1.1,59.607046498367,2025-11-23 15h33.53.272755 +0530,
Nurse,feminine,f3.jpg,female,104,50,1,f,0.335262100037653,None,1,50,104,25,239.19696089997888,,,,,,,,,239.1838786000153,239.19696089997888,239.64592610002728,239.69498869997915,240.6469043000252,240.6469043000252,240.6469043000252,240.9979157000198,f,0.335262100037653,None,,,Subject_02,001,2025-11-23_15h33.16.272,Semantic priming with gender association,,2025.1.1,59.607046498367,2025-11-23 15h33.53.272755 +0530,
Airshostess,feminine,f6.jpg,female,105,51,1,f,0.4213139000348747,None,1,51,105,31,241.01371129998006,,,,,,,,,241.00734130002093,241.01371129998006,241.49744320003083,241.51418240001658,242.49854320002487,242.49854320002487,242.49854320002487,242.93313960003434,f,0.4213139000348747,None,,,Subject_02,001,2025-11-23_15h33.16.272,Semantic priming with gender association,,2025.1.1,59.607046498367,2025-11-23 15h33.53.272755 +0530,
Democrat,neutral,m4.jpg,male,106,52,1,m,0.4213033000123687,None,1,52,106,46,242.94948130002012,,,,,,,,,242.94332610000856,242.94948130002012,243.433157499996,243.44989490002627,244.43438839999726,244.43438839999726,244.43438839999726,244.86892710003303,m,0.4213033000123687,None,,,Subject_02,001,2025-11-23_15h33.16.272,Semantic priming with gender association,,2025.1.1,59.607046498367,2025-11-23 15h33.53.272755 +0530,
Homemaker,feminine,m2.jpg,male,107,53,1,m,0.6184056000201963,None,1,53,107,22,244.8848549000104,,,,,,,,,244.87977830000455,244.8848549000104,245.36895450000884,245.38484850001987,246.36932539998088,246.36932539998088,246.36932539998088,247.00450480001746,m,0.6184056000201963,None,,,Subject_02,001,2025-11-23_15h33.16.272,Semantic priming with gender association,,2025.1.1,59.607046498367,2025-11-23 15h33.53.272755 +0530,
,,,,,,,,,,,,,,,,,,,,,,,,,,,,,,,,,,247.00462920003338,247.02066660003038,,,,,,,,,
