reward_today,future_reward,delay,thisN,thisTrialN,thisRepN,key_resp.keys,key_resp.rt,key_resp.duration,trials.thisRepN,trials.thisTrialN,trials.thisN,trials.thisIndex,thisRow.t,notes,trial.started,fixation.started,text.started,key_resp.started,fixation.stopped,trial.stopped,trials.key_resp.keys,trials.key_resp.rt,trials.key_resp.duration,participant,session,date,expName,expVersion,psychopyVersion,frameRate,expStart,
67,75,119,0,0,0,t,5.68468980002217,None,0,0,0,5,0.5081899999640882,,0.5026358999311924,0.5081899999640882,1.0069132999051362,1.0069132999051362,1.5227630999870598,6.887719399994239,t,5.68468980002217,None,Subject 02,001,2025-11-07_15h38.56.010,untitled,,2025.1.1,59.930516602070455,2025-11-07 15h39.12.736514 +0530,
78,80,162,1,1,0,t,1.7025456000119448,None,0,1,1,6,6.900568000040948,,6.895607899874449,6.900568000040948,7.897103399969637,7.897103399969637,7.913666700012982,9.616610599914566,t,1.7025456000119448,None,Subject 02,001,2025-11-07_15h38.56.010,untitled,,2025.1.1,59.930516602070455,2025-11-07 15h39.12.736514 +0530,
11,30,7,2,2,0,l,1.815548700047657,None,0,2,2,0,9.631416299846023,,9.622608399949968,9.631416299846023,10.617174600018188,10.617174600018188,10.633809000020847,12.43614499992691,l,1.815548700047657,None,Subject 02,001,2025-11-07_15h38.56.010,untitled,,2025.1.1,59.930516602070455,2025-11-07 15h39.12.736514 +0530,
27,50,21,3,3,0,l,2.192995300050825,None,0,3,3,2,12.451561199966818,,12.440952899865806,12.451561199966818,13.435436599887908,13.435436599887908,13.452110099839047,15.640205499948934,l,2.192995300050825,None,Subject 02,001,2025-11-07_15h38.56.010,untitled,,2025.1.1,59.930516602070455,2025-11-07 15h39.12.736514 +0530,
49,60,89,4,4,0,l,2.2574680999387056,None,0,4,4,4,15.654647900024429,,15.646937699988484,15.654647900024429,16.640483199851587,16.640483199851587,16.657255899859592,18.910077600041404,l,2.2574680999387056,None,Subject 02,001,2025-11-07_15h38.56.010,untitled,,2025.1.1,59.930516602070455,2025-11-07 15h39.12.736514 +0530,
40,55,62,5,5,0,t,5.046380399959162,None,0,5,5,3,18.925386499846354,,18.915477599948645,18.925386499846354,19.910551100037992,19.910551100037992,19.926702099852264,24.96602229983546,t,5.046380399959162,None,Subject 02,001,2025-11-07_15h38.56.010,untitled,,2025.1.1,59.930516602070455,2025-11-07 15h39.12.736514 +0530,
15,35,13,6,6,0,l,0.6646811000537127,None,0,6,6,1,24.98189129983075,,24.97024349984713,24.98189129983075,25.967199199832976,25.967199199832976,25.984116999898106,26.634838299825788,l,0.6646811000537127,None,Subject 02,001,2025-11-07_15h38.56.010,untitled,,2025.1.1,59.930516602070455,2025-11-07 15h39.12.736514 +0530,
27,50,21,7,0,1,l,0.9150694999843836,None,1,0,7,2,26.65054959990084,,26.63870540005155,26.65054959990084,27.6351205999963,27.6351205999963,27.65178279997781,28.553598999977112,l,0.9150694999843836,None,Subject 02,001,2025-11-07_15h38.56.010,untitled,,2025.1.1,59.930516602070455,2025-11-07 15h39.12.736514 +0530,
40,55,62,8,1,1,t,5.273638699902222,None,1,1,8,3,28.56982530001551,,28.557673800038174,28.56982530001551,29.553334099939093,29.553334099939093,29.570347500033677,34.827659599948674,t,5.273638699902222,None,Subject 02,001,2025-11-07_15h38.56.010,untitled,,2025.1.1,59.930516602070455,2025-11-07 15h39.12.736514 +0530,
11,30,7,9,2,1,l,0.6782414999324828,None,1,2,9,0,34.84353529987857,,34.831333599984646,34.84353529987857,35.827329699881375,35.827329699881375,35.84498499985784,36.51242949999869,l,0.6782414999324828,None,Subject 02,001,2025-11-07_15h38.56.010,untitled,,2025.1.1,59.930516602070455,2025-11-07 15h39.12.736514 +0530,
49,60,89,10,3,1,l,2.830240299925208,None,1,3,10,4,36.52808149997145,,36.51604669983499,36.52808149997145,37.51264770003036,37.51264770003036,37.529246599879116,40.349953999975696,l,2.830240299925208,None,Subject 02,001,2025-11-07_15h38.56.010,untitled,,2025.1.1,59.930516602070455,2025-11-07 15h39.12.736514 +0530,
15,35,13,11,4,1,l,2.7356263999827206,None,1,4,11,1,40.36532470001839,,40.354510499862954,40.36532470001839,41.350627599982545,41.350627599982545,41.36747169983573,44.09135390003212,l,2.7356263999827206,None,Subject 02,001,2025-11-07_15h38.56.010,untitled,,2025.1.1,59.930516602070455,2025-11-07 15h39.12.736514 +0530,
67,75,119,12,5,1,t,1.9084972999989986,None,1,5,12,5,44.10340330004692,,44.09541919990443,44.10340330004692,45.10378209990449,45.10378209990449,45.10378209990449,47.02436399995349,t,1.9084972999989986,None,Subject 02,001,2025-11-07_15h38.56.010,untitled,,2025.1.1,59.930516602070455,2025-11-07 15h39.12.736514 +0530,
78,80,162,13,6,1,t,1.3017414000350982,None,1,6,13,6,47.03992059989832,,47.02768519986421,47.03992059989832,48.02386890002526,48.02386890002526,48.040508799953386,49.342496499884874,t,1.3017414000350982,None,Subject 02,001,2025-11-07_15h38.56.010,untitled,,2025.1.1,59.930516602070455,2025-11-07 15h39.12.736514 +0530,
11,30,7,14,0,2,l,1.420032100053504,None,2,0,14,0,49.358931299997494,,49.34593569999561,49.358931299997494,50.342635500011966,50.342635500011966,50.35904040001333,51.7785374999512,l,1.420032100053504,None,Subject 02,001,2025-11-07_15h38.56.010,untitled,,2025.1.1,59.930516602070455,2025-11-07 15h39.12.736514 +0530,
49,60,89,15,1,2,t,6.653025599895045,None,2,1,15,4,51.794612400000915,,51.7829916998744,51.794612400000915,52.77950519998558,52.77950519998558,52.79559300001711,59.43727350002155,t,6.653025599895045,None,Subject 02,001,2025-11-07_15h38.56.010,untitled,,2025.1.1,59.930516602070455,2025-11-07 15h39.12.736514 +0530,
67,75,119,16,2,2,t,2.9858405000995845,None,2,2,16,5,59.45289990003221,,59.441680300049484,59.45289990003221,60.43797229998745,60.43797229998745,60.45468540000729,63.426345699932426,t,2.9858405000995845,None,Subject 02,001,2025-11-07_15h38.56.010,untitled,,2025.1.1,59.930516602070455,2025-11-07 15h39.12.736514 +0530,
27,50,21,17,3,2,l,2.0911049998831004,None,2,3,17,2,63.44144900003448,,63.43019440001808,63.44144900003448,64.42704179999419,64.42704179999419,64.44327010004781,66.52821729984134,l,2.0911049998831004,None,Subject 02,001,2025-11-07_15h38.56.010,untitled,,2025.1.1,59.930516602070455,2025-11-07 15h39.12.736514 +0530,
15,35,13,18,4,2,l,1.9146634999196976,None,2,4,18,1,66.54464019997977,,66.53267459990457,66.54464019997977,67.52906539989635,67.52906539989635,67.54554029996507,69.44813249981962,l,1.9146634999196976,None,Subject 02,001,2025-11-07_15h38.56.010,untitled,,2025.1.1,59.930516602070455,2025-11-07 15h39.12.736514 +0530,
40,55,62,19,5,2,l,8.35712799988687,None,2,5,19,3,69.46407889993861,,69.45198179990984,69.46407889993861,70.4488525998313,70.4488525998313,70.46621939982288,78.8090531998314,l,8.35712799988687,None,Subject 02,001,2025-11-07_15h38.56.010,untitled,,2025.1.1,59.930516602070455,2025-11-07 15h39.12.736514 +0530,
78,80,162,20,6,2,t,1.710678800009191,None,2,6,20,6,78.8244441000279,,78.81385020003654,78.8244441000279,79.80930389999412,79.80930389999412,79.82573989988305,81.52819489990361,t,1.710678800009191,None,Subject 02,001,2025-11-07_15h38.56.010,untitled,,2025.1.1,59.930516602070455,2025-11-07 15h39.12.736514 +0530,
40,55,62,21,0,3,t,3.6356603999156505,None,3,0,21,3,81.544103999855,,81.53251349995844,81.544103999855,82.52915750001557,82.52915750001557,82.5455960999243,86.16666949982755,t,3.6356603999156505,None,Subject 02,001,2025-11-07_15h38.56.010,untitled,,2025.1.1,59.930516602070455,2025-11-07 15h39.12.736514 +0530,
27,50,21,22,1,3,l,1.9191293001640588,None,3,1,22,2,86.18302599992603,,86.17114520003088,86.18302599992603,87.16767650004476,87.16767650004476,87.18399469996803,89.1033882999327,l,1.9191293001640588,None,Subject 02,001,2025-11-07_15h38.56.010,untitled,,2025.1.1,59.930516602070455,2025-11-07 15h39.12.736514 +0530,
49,60,89,23,2,3,t,2.966881100088358,None,3,2,23,4,89.1194978998974,,89.1075418998953,89.1194978998974,90.1042487998493,90.1042487998493,90.1210848998744,93.07323360000737,t,2.966881100088358,None,Subject 02,001,2025-11-07_15h38.56.010,untitled,,2025.1.1,59.930516602070455,2025-11-07 15h39.12.736514 +0530,
67,75,119,24,3,3,t,4.260781900025904,None,3,3,24,5,93.09065219992772,,93.07752609997988,93.09065219992772,94.07496050000191,94.07496050000191,94.09080119989812,98.34716829983518,t,4.260781900025904,None,Subject 02,001,2025-11-07_15h38.56.010,untitled,,2025.1.1,59.930516602070455,2025-11-07 15h39.12.736514 +0530,
78,80,162,25,4,3,t,1.9799530000891536,None,3,4,25,6,98.36475099995732,,98.35057389992289,98.36475099995732,99.3475138999056,99.3475138999056,99.36396059999242,101.33362299995497,t,1.9799530000891536,None,Subject 02,001,2025-11-07_15h38.56.010,untitled,,2025.1.1,59.930516602070455,2025-11-07 15h39.12.736514 +0530,
15,35,13,26,5,3,l,0.6719792000949383,None,3,5,26,1,101.3494245999027,,101.33750949986279,101.3494245999027,102.33402789989486,102.33402789989486,102.35092039988376,103.01930129993707,l,0.6719792000949383,None,Subject 02,001,2025-11-07_15h38.56.010,untitled,,2025.1.1,59.930516602070455,2025-11-07 15h39.12.736514 +0530,
11,30,7,27,6,3,l,0.5414020998869091,None,3,6,27,0,103.03454819996841,,103.023892799858,103.03454819996841,104.0198403999675,104.0198403999675,104.03654409991577,104.57051889994182,l,0.5414020998869091,None,Subject 02,001,2025-11-07_15h38.56.010,untitled,,2025.1.1,59.930516602070455,2025-11-07 15h39.12.736514 +0530,
11,30,7,28,0,4,l,0.6581987999379635,None,4,0,28,0,104.58570869988762,,104.57085200003348,104.58570869988762,105.5716515998356,105.5716515998356,105.58841019985266,106.23790339985862,l,0.6581987999379635,None,Subject 02,001,2025-11-07_15h38.56.010,untitled,,2025.1.1,59.930516602070455,2025-11-07 15h39.12.736514 +0530,
40,55,62,29,1,4,t,6.515831000171602,None,4,1,29,3,106.25413380004466,,106.242063799873,106.25413380004466,107.23928650002927,107.23928650002927,107.25579670001753,113.76348609989509,t,6.515831000171602,None,Subject 02,001,2025-11-07_15h38.56.010,untitled,,2025.1.1,59.930516602070455,2025-11-07 15h39.12.736514 +0530,
15,35,13,30,2,4,l,0.7316056999843568,None,4,2,30,1,113.77903750003316,,113.76790690002963,113.77903750003316,114.76475759991445,114.76475759991445,114.78092429996468,115.49996349983849,l,0.7316056999843568,None,Subject 02,001,2025-11-07_15h38.56.010,untitled,,2025.1.1,59.930516602070455,2025-11-07 15h39.12.736514 +0530,
27,50,21,31,3,4,l,3.075149399926886,None,4,3,31,2,115.51724609988742,,115.50500270002522,115.51724609988742,116.49906599987298,116.49906599987298,116.53325039986521,119.58743429998867,l,3.075149399926886,None,Subject 02,001,2025-11-07_15h38.56.010,untitled,,2025.1.1,59.930516602070455,2025-11-07 15h39.12.736514 +0530,
78,80,162,32,4,4,t,1.7918432999867946,None,4,4,32,6,119.6035243999213,,119.59078039997257,119.6035243999213,120.58729389985092,120.58729389985092,120.60319239995442,122.38978839991614,t,1.7918432999867946,None,Subject 02,001,2025-11-07_15h38.56.010,untitled,,2025.1.1,59.930516602070455,2025-11-07 15h39.12.736514 +0530,
67,75,119,33,5,4,t,3.246005899971351,None,4,5,33,5,122.40510579990223,,122.39435349986888,122.40510579990223,123.39070739992894,123.39070739992894,123.40715959994122,126.64476659987122,t,3.246005899971351,None,Subject 02,001,2025-11-07_15h38.56.010,untitled,,2025.1.1,59.930516602070455,2025-11-07 15h39.12.736514 +0530,
49,60,89,34,6,4,l,1.281732500065118,None,4,6,34,4,126.66127639985643,,126.64963919995353,126.66127639985643,127.6448919000104,127.6448919000104,127.66173859988339,128.929940499831,l,1.281732500065118,None,Subject 02,001,2025-11-07_15h38.56.010,untitled,,2025.1.1,59.930516602070455,2025-11-07 15h39.12.736514 +0530,
40,55,62,35,0,5,l,1.8818336001131684,None,5,0,35,3,128.94654329982586,,128.93466339982115,128.94654329982586,129.9306999000255,129.9306999000255,129.94686669996008,131.81621539988555,l,1.8818336001131684,None,Subject 02,001,2025-11-07_15h38.56.010,untitled,,2025.1.1,59.930516602070455,2025-11-07 15h39.12.736514 +0530,
27,50,21,36,1,5,l,2.4759700999129564,None,5,1,36,2,131.8330251998268,,131.8205617000349,131.8330251998268,132.81691029993817,132.81691029993817,132.83465149998665,135.30419239983894,l,2.4759700999129564,None,Subject 02,001,2025-11-07_15h38.56.010,untitled,,2025.1.1,59.930516602070455,2025-11-07 15h39.12.736514 +0530,
67,75,119,37,2,5,t,1.0645169001072645,None,5,2,37,5,135.3203113998752,,135.30843789991923,135.3203113998752,136.30431789997965,136.30431789997965,136.320796799846,137.37295169988647,t,1.0645169001072645,None,Subject 02,001,2025-11-07_15h38.56.010,untitled,,2025.1.1,59.930516602070455,2025-11-07 15h39.12.736514 +0530,
49,60,89,38,3,5,l,1.9285426998976618,None,5,3,38,4,137.38854780001566,,137.37783729983494,137.38854780001566,138.3737554999534,138.3737554999534,138.39069189992733,140.30955330003053,l,1.9285426998976618,None,Subject 02,001,2025-11-07_15h38.56.010,untitled,,2025.1.1,59.930516602070455,2025-11-07 15h39.12.736514 +0530,
78,80,162,39,4,5,t,2.257782000117004,None,5,4,39,6,140.32497509988025,,140.31446639983915,140.32497509988025,141.30953960004263,141.30953960004263,141.32669069990516,143.58046590001322,t,2.257782000117004,None,Subject 02,001,2025-11-07_15h38.56.010,untitled,,2025.1.1,59.930516602070455,2025-11-07 15h39.12.736514 +0530,
15,35,13,40,5,5,l,0.48999569984152913,None,5,5,40,1,143.5963091000449,,143.58448089985177,143.5963091000449,144.5802974998951,144.5802974998951,144.59704809985124,145.08225729991682,l,0.48999569984152913,None,Subject 02,001,2025-11-07_15h38.56.010,untitled,,2025.1.1,59.930516602070455,2025-11-07 15h39.12.736514 +0530,
11,30,7,41,6,5,l,0.6231200001202524,None,5,6,41,0,145.09730120003223,,145.0869391998276,145.09730120003223,146.08157929987647,146.08157929987647,146.099293399835,146.7166142000351,l,0.6231200001202524,None,Subject 02,001,2025-11-07_15h38.56.010,untitled,,2025.1.1,59.930516602070455,2025-11-07 15h39.12.736514 +0530,
67,75,119,42,0,6,t,0.8182182000018656,None,6,0,42,5,146.7318303999491,,146.72108689998277,146.7318303999491,147.7174435998313,147.7174435998313,147.73394329985604,148.55170459998772,t,0.8182182000018656,None,Subject 02,001,2025-11-07_15h38.56.010,untitled,,2025.1.1,59.930516602070455,2025-11-07 15h39.12.736514 +0530,
40,55,62,43,1,6,l,2.379158099880442,None,6,1,43,3,148.5684481000062,,148.55613429984078,148.5684481000062,149.55235480004922,149.55235480004922,149.56997049995698,151.93929899996147,l,2.379158099880442,None,Subject 02,001,2025-11-07_15h38.56.010,untitled,,2025.1.1,59.930516602070455,2025-11-07 15h39.12.736514 +0530,
11,30,7,44,2,6,l,0.7836636998690665,None,6,2,44,0,151.95613910001703,,151.94353719986975,151.95613910001703,152.93894380005077,152.93894380005077,152.9566311999224,153.72399890003726,l,0.7836636998690665,None,Subject 02,001,2025-11-07_15h38.56.010,untitled,,2025.1.1,59.930516602070455,2025-11-07 15h39.12.736514 +0530,
78,80,162,45,3,6,t,1.5700798998586833,None,6,3,45,6,153.73984229983762,,153.72886819997802,153.73984229983762,154.7254454998765,154.7254454998765,154.74176789983176,156.3098245000001,t,1.5700798998586833,None,Subject 02,001,2025-11-07_15h38.56.010,untitled,,2025.1.1,59.930516602070455,2025-11-07 15h39.12.736514 +0530,
15,35,13,46,4,6,l,0.6027863000053912,None,6,4,46,1,156.32675100001507,,156.31329019996338,156.32675100001507,157.31111019989476,157.31111019989476,157.32775599998422,157.929003899917,l,0.6027863000053912,None,Subject 02,001,2025-11-07_15h38.56.010,untitled,,2025.1.1,59.930516602070455,2025-11-07 15h39.12.736514 +0530,
27,50,21,47,5,6,l,0.5541934999637306,None,6,5,47,2,157.94433299987577,,157.93300560000353,157.94433299987577,158.92922399984673,158.92922399984673,158.94663509982638,159.49669609987177,l,0.5541934999637306,None,Subject 02,001,2025-11-07_15h38.56.010,untitled,,2025.1.1,59.930516602070455,2025-11-07 15h39.12.736514 +0530,
49,60,89,48,6,6,l,1.4898876999504864,None,6,6,48,4,159.5128575998824,,159.50172369997017,159.5128575998824,160.49743780004792,160.49743780004792,160.51489320001565,162.0002468000166,l,1.4898876999504864,None,Subject 02,001,2025-11-07_15h38.56.010,untitled,,2025.1.1,59.930516602070455,2025-11-07 15h39.12.736514 +0530,
11,30,7,49,0,7,l,0.6589758000336587,None,7,0,49,0,162.0152564998716,,162.0053115999326,162.0152564998716,163.0008010000456,163.0008010000456,163.01729570003226,163.6675376999192,l,0.6589758000336587,None,Subject 02,001,2025-11-07_15h38.56.010,untitled,,2025.1.1,59.930516602070455,2025-11-07 15h39.12.736514 +0530,
78,80,162,50,1,7,t,0.9826219999231398,None,7,1,50,6,163.6838662000373,,163.67087349994108,163.6838662000373,164.6689200999681,164.6689200999681,164.6858192998916,165.65427810000256,t,0.9826219999231398,None,Subject 02,001,2025-11-07_15h38.56.010,untitled,,2025.1.1,59.930516602070455,2025-11-07 15h39.12.736514 +0530,
40,55,62,51,2,7,l,1.635794100118801,None,7,2,51,3,165.66956779989414,,165.65884980000556,165.66956779989414,166.65460719983093,166.65460719983093,166.6714234999381,168.30649299989454,l,1.635794100118801,None,Subject 02,001,2025-11-07_15h38.56.010,untitled,,2025.1.1,59.930516602070455,2025-11-07 15h39.12.736514 +0530,
15,35,13,52,3,7,t,0.6185938999988139,None,7,3,52,1,168.32341309986077,,168.30992909986526,168.32341309986077,169.3123739999719,169.3123739999719,169.32321109995246,169.94232439994812,t,0.6185938999988139,None,Subject 02,001,2025-11-07_15h38.56.010,untitled,,2025.1.1,59.930516602070455,2025-11-07 15h39.12.736514 +0530,
49,60,89,53,4,7,l,2.638629199936986,None,7,4,53,4,169.95777600002475,,169.9472316999454,169.95777600002475,170.94181669992395,170.94181669992395,170.95928830001503,173.59630590002052,l,2.638629199936986,None,Subject 02,001,2025-11-07_15h38.56.010,untitled,,2025.1.1,59.930516602070455,2025-11-07 15h39.12.736514 +0530,
27,50,21,54,5,7,l,0.7982036999892443,None,7,5,54,2,173.61306139989756,,173.60108389984816,173.61306139989756,174.59688750002533,174.59688750002533,174.61336029996164,175.39924189983867,l,0.7982036999892443,None,Subject 02,001,2025-11-07_15h38.56.010,untitled,,2025.1.1,59.930516602070455,2025-11-07 15h39.12.736514 +0530,
67,75,119,55,6,7,t,0.5999503000639379,None,7,6,55,5,175.41473859990947,,175.40406019985676,175.41473859990947,176.3986247999128,176.3986247999128,176.41536289989017,177.00008090003394,t,0.5999503000639379,None,Subject 02,001,2025-11-07_15h38.56.010,untitled,,2025.1.1,59.930516602070455,2025-11-07 15h39.12.736514 +0530,
67,75,119,56,0,8,t,0.5710449998732656,None,8,0,56,5,177.01532189990394,,177.00032559991814,177.01532189990394,178.00077029992826,178.00077029992826,178.0172254999634,178.58481929986738,t,0.5710449998732656,None,Subject 02,001,2025-11-07_15h38.56.010,untitled,,2025.1.1,59.930516602070455,2025-11-07 15h39.12.736514 +0530,
11,30,7,57,1,8,l,0.6265929001383483,None,8,1,57,0,178.6020062000025,,178.5897849998437,178.6020062000025,179.58574020001106,179.58574020001106,179.60216000000946,180.22162289987318,l,0.6265929001383483,None,Subject 02,001,2025-11-07_15h38.56.010,untitled,,2025.1.1,59.930516602070455,2025-11-07 15h39.12.736514 +0530,
78,80,162,58,2,8,t,1.0977495000697672,None,8,2,58,6,180.2349948999472,,180.22589849983342,180.2349948999472,181.23736190004274,181.23736190004274,181.23736190004274,182.33851609984413,t,1.0977495000697672,None,Subject 02,001,2025-11-07_15h38.56.010,untitled,,2025.1.1,59.930516602070455,2025-11-07 15h39.12.736514 +0530,
15,35,13,59,3,8,l,0.7850638998206705,None,8,3,59,1,182.35442249989137,,182.34296209993772,182.35442249989137,183.33871779986657,183.33871779986657,183.3561768999789,184.12468919996172,l,0.7850638998206705,None,Subject 02,001,2025-11-07_15h38.56.010,untitled,,2025.1.1,59.930516602070455,2025-11-07 15h39.12.736514 +0530,
27,50,21,60,4,8,l,0.5130312000401318,None,8,4,60,2,184.14058909984306,,184.12969839992002,184.14058909984306,185.12486079987139,185.12486079987139,185.14200749993324,185.64241089997813,l,0.5130312000401318,None,Subject 02,001,2025-11-07_15h38.56.010,untitled,,2025.1.1,59.930516602070455,2025-11-07 15h39.12.736514 +0530,
49,60,89,61,5,8,l,1.185287999920547,None,8,5,61,4,185.65838509984314,,185.6471241998952,185.65838509984314,186.6441311999224,186.6441311999224,186.66004709992558,187.8449840999674,l,1.185287999920547,None,Subject 02,001,2025-11-07_15h38.56.010,untitled,,2025.1.1,59.930516602070455,2025-11-07 15h39.12.736514 +0530,
40,55,62,62,6,8,l,0.9608485999051481,None,8,6,62,3,187.8603459999431,,187.84892240003683,187.8603459999431,188.84540049987845,188.84540049987845,188.86261569987983,189.81395550002344,l,0.9608485999051481,None,Subject 02,001,2025-11-07_15h38.56.010,untitled,,2025.1.1,59.930516602070455,2025-11-07 15h39.12.736514 +0530,
15,35,13,63,0,9,l,0.7225736998952925,None,9,0,63,1,189.82979379990138,,189.8174590000417,189.82979379990138,190.81445319997147,190.81445319997147,190.83132899994962,191.54938340000808,l,0.7225736998952925,None,Subject 02,001,2025-11-07_15h38.56.010,untitled,,2025.1.1,59.930516602070455,2025-11-07 15h39.12.736514 +0530,
67,75,119,64,1,9,t,0.8452373000327498,None,9,1,64,5,191.56476029986516,,191.55369849991985,191.56476029986516,192.54929300001822,192.54929300001822,192.56704439991154,193.40142919984646,t,0.8452373000327498,None,Subject 02,001,2025-11-07_15h38.56.010,untitled,,2025.1.1,59.930516602070455,2025-11-07 15h39.12.736514 +0530,
78,80,162,65,2,9,t,1.4945743000134826,None,9,2,65,6,193.41654899995774,,193.40548729989678,193.41654899995774,194.4018914999906,194.4018914999906,194.4185581000056,195.90318389981985,t,1.4945743000134826,None,Subject 02,001,2025-11-07_15h38.56.010,untitled,,2025.1.1,59.930516602070455,2025-11-07 15h39.12.736514 +0530,
49,60,89,66,3,9,l,0.7789946999400854,None,9,3,66,4,195.9192429999821,,195.9073476998601,195.9192429999821,196.90418830001727,196.90418830001727,196.92052139993757,197.68857069988735,l,0.7789946999400854,None,Subject 02,001,2025-11-07_15h38.56.010,untitled,,2025.1.1,59.930516602070455,2025-11-07 15h39.12.736514 +0530,
27,50,21,67,4,9,l,3.796117400052026,None,9,4,67,2,197.7048793998547,,197.69220069982111,197.7048793998547,198.68996290001087,198.68996290001087,198.70628000004217,202.49511939985678,l,3.796117400052026,None,Subject 02,001,2025-11-07_15h38.56.010,untitled,,2025.1.1,59.930516602070455,2025-11-07 15h39.12.736514 +0530,
40,55,62,68,5,9,l,0.7076057000085711,None,9,5,68,3,202.51042599999346,,202.50026679993607,202.51042599999346,203.49540539993905,203.49540539993905,203.5118273999542,204.21253469982184,l,0.7076057000085711,None,Subject 02,001,2025-11-07_15h38.56.010,untitled,,2025.1.1,59.930516602070455,2025-11-07 15h39.12.736514 +0530,
11,30,7,69,6,9,l,0.571456499863416,None,9,6,69,0,204.22897029994056,,204.21581129985861,204.22897029994056,205.21384879993275,205.21384879993275,205.2304709998425,205.79838769999333,l,0.571456499863416,None,Subject 02,001,2025-11-07_15h38.56.010,untitled,,2025.1.1,59.930516602070455,2025-11-07 15h39.12.736514 +0530,
67,75,119,70,0,10,t,0.5105535998009145,None,10,0,70,5,205.81363649992272,,205.80198649992235,205.81363649992272,206.79922149982303,206.79922149982303,206.81607689987868,207.31565829995088,t,0.5105535998009145,None,Subject 02,001,2025-11-07_15h38.56.010,untitled,,2025.1.1,59.930516602070455,2025-11-07 15h39.12.736514 +0530,
78,80,162,71,1,10,t,0.4627157000359148,None,10,1,71,6,207.3336906998884,,207.3198932998348,207.3336906998884,208.3161883999128,208.3161883999128,208.3339245999232,208.78377169999294,t,0.4627157000359148,None,Subject 02,001,2025-11-07_15h38.56.010,untitled,,2025.1.1,59.930516602070455,2025-11-07 15h39.12.736514 +0530,
40,55,62,72,2,10,l,1.2069993999321014,None,10,2,72,3,208.79978400003165,,208.7887030998245,208.79978400003165,209.78525109984912,209.78525109984912,209.80175199988298,211.0049201999791,l,1.2069993999321014,None,Subject 02,001,2025-11-07_15h38.56.010,untitled,,2025.1.1,59.930516602070455,2025-11-07 15h39.12.736514 +0530,
27,50,21,73,3,10,l,0.8240783999208361,None,10,3,73,2,211.02024240000173,,211.0092549000401,211.02024240000173,212.00487970001996,212.00487970001996,212.02119040000252,212.83863799995743,l,0.8240783999208361,None,Subject 02,001,2025-11-07_15h38.56.010,untitled,,2025.1.1,59.930516602070455,2025-11-07 15h39.12.736514 +0530,
49,60,89,74,4,10,l,0.8665044999215752,None,10,4,74,4,212.85449079982936,,212.8425996999722,212.85449079982936,213.8390351999551,213.8390351999551,213.85618590004742,214.7081201998517,l,0.8665044999215752,None,Subject 02,001,2025-11-07_15h38.56.010,untitled,,2025.1.1,59.930516602070455,2025-11-07 15h39.12.736514 +0530,
11,30,7,75,5,10,l,2.8230531997978687,None,10,5,75,0,214.7235596999526,,214.71251640003175,214.7235596999526,215.70921280002221,215.70921280002221,215.72587520000525,218.5454404000193,l,2.8230531997978687,None,Subject 02,001,2025-11-07_15h38.56.010,untitled,,2025.1.1,59.930516602070455,2025-11-07 15h39.12.736514 +0530,
15,35,13,76,6,10,l,0.46819390007294714,None,10,6,76,1,218.5605162999127,,218.54963959986344,218.5605162999127,219.54656509985216,219.54656509985216,219.56272469996475,220.02978209988214,l,0.46819390007294714,None,Subject 02,001,2025-11-07_15h38.56.010,untitled,,2025.1.1,59.930516602070455,2025-11-07 15h39.12.736514 +0530,
78,80,162,77,0,11,t,0.5020771999843419,None,11,0,77,6,220.0458270998206,,220.03338619996794,220.0458270998206,221.03117710002698,221.03117710002698,221.04756399989128,221.5480523998849,t,0.5020771999843419,None,Subject 02,001,2025-11-07_15h38.56.010,untitled,,2025.1.1,59.930516602070455,2025-11-07 15h39.12.736514 +0530,
40,55,62,78,1,11,l,0.7096134999301285,None,11,1,78,3,221.5659702999983,,221.55291530000977,221.5659702999983,222.54995439993218,222.54995439993218,222.56634479993954,223.2674362999387,l,0.7096134999301285,None,Subject 02,001,2025-11-07_15h38.56.010,untitled,,2025.1.1,59.930516602070455,2025-11-07 15h39.12.736514 +0530,
67,75,119,79,2,11,t,1.9917640001513064,None,11,2,79,5,223.28266979986802,,223.27173519995995,223.28266979986802,224.26660940004513,224.26660940004513,224.28498560003936,226.26958639989607,t,1.9917640001513064,None,Subject 02,001,2025-11-07_15h38.56.010,untitled,,2025.1.1,59.930516602070455,2025-11-07 15h39.12.736514 +0530,
27,50,21,80,3,11,l,0.4494539999868721,None,11,3,80,2,226.28567230002955,,226.27417659992352,226.28567230002955,227.27466039988212,227.27466039988212,227.2870640999172,227.73862209985964,l,0.4494539999868721,None,Subject 02,001,2025-11-07_15h38.56.010,untitled,,2025.1.1,59.930516602070455,2025-11-07 15h39.12.736514 +0530,
11,30,7,81,4,11,l,0.40368090011179447,None,11,4,81,0,227.7549580000341,,227.74274699995294,227.7549580000341,228.73916419991292,228.73916419991292,228.75578500004485,229.15763839986175,l,0.40368090011179447,None,Subject 02,001,2025-11-07_15h38.56.010,untitled,,2025.1.1,59.930516602070455,2025-11-07 15h39.12.736514 +0530,
15,35,13,82,5,11,l,0.45108340005390346,None,11,5,82,1,229.1729701999575,,229.16219389997423,229.1729701999575,230.1573411000427,230.1573411000427,230.17408699984662,230.62457189988345,l,0.45108340005390346,None,Subject 02,001,2025-11-07_15h38.56.010,untitled,,2025.1.1,59.930516602070455,2025-11-07 15h39.12.736514 +0530,
49,60,89,83,6,11,l,0.41864280006848276,None,11,6,83,4,230.6418150998652,,230.62826889986172,230.6418150998652,231.62639559991658,231.62639559991658,231.64280899986625,232.05981769994833,l,0.41864280006848276,None,Subject 02,001,2025-11-07_15h38.56.010,untitled,,2025.1.1,59.930516602070455,2025-11-07 15h39.12.736514 +0530,
27,50,21,84,0,12,l,0.5580013000871986,None,12,0,84,2,232.07624129997566,,232.0642535998486,232.07624129997566,233.06034379987977,233.06034379987977,233.07908699987456,233.62844039988704,l,0.5580013000871986,None,Subject 02,001,2025-11-07_15h38.56.010,untitled,,2025.1.1,59.930516602070455,2025-11-07 15h39.12.736514 +0530,
15,35,13,85,1,12,l,0.4119455001782626,None,12,1,85,1,233.64500819984823,,233.63282729987986,233.64500819984823,234.6292079000268,234.6292079000268,234.6458413999062,235.0468593998812,l,0.4119455001782626,None,Subject 02,001,2025-11-07_15h38.56.010,untitled,,2025.1.1,59.930516602070455,2025-11-07 15h39.12.736514 +0530,
11,30,7,86,2,12,l,0.4148558999877423,None,12,2,86,0,235.0623035999015,,235.05030949995853,235.0623035999015,236.04682219983079,236.04682219983079,236.06381960003637,236.46464619995095,l,0.4148558999877423,None,Subject 02,001,2025-11-07_15h38.56.010,untitled,,2025.1.1,59.930516602070455,2025-11-07 15h39.12.736514 +0530,
40,55,62,87,3,12,l,0.9147841001395136,None,12,3,87,3,236.4805236000102,,236.46869969996624,236.4805236000102,237.46668389998376,237.46668389998376,237.48335710004903,238.38385759992525,l,0.9147841001395136,None,Subject 02,001,2025-11-07_15h38.56.010,untitled,,2025.1.1,59.930516602070455,2025-11-07 15h39.12.736514 +0530,
78,80,162,88,4,12,t,0.5810384000651538,None,12,4,88,6,238.39910049992613,,238.3881168998778,238.39910049992613,239.38451040000655,239.38451040000655,239.40094730001874,239.9682076999452,t,0.5810384000651538,None,Subject 02,001,2025-11-07_15h38.56.010,untitled,,2025.1.1,59.930516602070455,2025-11-07 15h39.12.736514 +0530,
67,75,119,89,5,12,t,0.44274930004030466,None,12,5,89,5,239.98416109988466,,239.97239789995365,239.98416109988466,240.96930939983577,240.96930939983577,240.98518730001524,241.42046169983223,t,0.44274930004030466,None,Subject 02,001,2025-11-07_15h38.56.010,untitled,,2025.1.1,59.930516602070455,2025-11-07 15h39.12.736514 +0530,
49,60,89,90,6,12,l,1.2380450000055134,None,12,6,90,4,241.4359726998955,,241.42542939982377,241.4359726998955,242.42176109994762,242.42176109994762,242.4374559998978,243.6732021998614,l,1.2380450000055134,None,Subject 02,001,2025-11-07_15h38.56.010,untitled,,2025.1.1,59.930516602070455,2025-11-07 15h39.12.736514 +0530,
67,75,119,91,0,13,t,0.748185400152579,None,13,0,91,5,243.68915949994698,,243.67665939987637,243.68915949994698,244.69018389983103,244.69018389983103,244.69018389983103,245.43974269996397,t,0.748185400152579,None,Subject 02,001,2025-11-07_15h38.56.010,untitled,,2025.1.1,59.930516602070455,2025-11-07 15h39.12.736514 +0530,
11,30,7,92,1,13,l,0.8038561998400837,None,13,1,92,0,245.45809189998545,,245.44315329985693,245.45809189998545,246.4418188999407,246.4418188999407,246.45702810003422,247.25905500003137,l,0.8038561998400837,None,Subject 02,001,2025-11-07_15h38.56.010,untitled,,2025.1.1,59.930516602070455,2025-11-07 15h39.12.736514 +0530,
15,35,13,93,2,13,l,1.2367816001642495,None,13,2,93,1,247.27501369989477,,247.26292039989494,247.27501369989477,248.25931059988216,248.25931059988216,248.27601999999024,249.5120410998352,l,1.2367816001642495,None,Subject 02,001,2025-11-07_15h38.56.010,untitled,,2025.1.1,59.930516602070455,2025-11-07 15h39.12.736514 +0530,
27,50,21,94,3,13,l,0.4893920999020338,None,13,3,94,2,249.52759819990024,,249.51663319999352,249.52759819990024,250.51345989992842,250.51345989992842,250.52975139999762,251.01422069990076,l,0.4893920999020338,None,Subject 02,001,2025-11-07_15h38.56.010,untitled,,2025.1.1,59.930516602070455,2025-11-07 15h39.12.736514 +0530,
78,80,162,95,4,13,t,0.6100290000904351,None,13,4,95,6,251.02952499990351,,251.01848930004053,251.02952499990351,252.0142701000441,252.0142701000441,252.0312389000319,252.6327414000407,t,0.6100290000904351,None,Subject 02,001,2025-11-07_15h38.56.010,untitled,,2025.1.1,59.930516602070455,2025-11-07 15h39.12.736514 +0530,
49,60,89,96,5,13,l,0.7357312999665737,None,13,5,96,4,252.6479974000249,,252.63782779988833,252.6479974000249,253.63356899982318,253.63356899982318,253.65017669997178,254.38394630001858,l,0.7357312999665737,None,Subject 02,001,2025-11-07_15h38.56.010,untitled,,2025.1.1,59.930516602070455,2025-11-07 15h39.12.736514 +0530,
40,55,62,97,6,13,l,0.5049705998972058,None,13,6,97,3,254.40003469982184,,254.38817159994505,254.40003469982184,255.38502589985728,255.38502589985728,255.40264600003138,255.90214370004833,l,0.5049705998972058,None,Subject 02,001,2025-11-07_15h38.56.010,untitled,,2025.1.1,59.930516602070455,2025-11-07 15h39.12.736514 +0530,
15,35,13,98,0,14,l,0.35518940002657473,None,14,0,98,1,255.91944049997255,,255.90630839997903,255.91944049997255,256.9034257000312,256.9034257000312,256.92009529983625,257.2712343998719,l,0.35518940002657473,None,Subject 02,001,2025-11-07_15h38.56.010,untitled,,2025.1.1,59.930516602070455,2025-11-07 15h39.12.736514 +0530,
78,80,162,99,1,14,l,0.32286080019548535,None,14,1,99,6,257.28745069983415,,257.2746647999156,257.28745069983415,258.2714434999507,258.2714434999507,258.28841869998723,258.6065878998488,l,0.32286080019548535,None,Subject 02,001,2025-11-07_15h38.56.010,untitled,,2025.1.1,59.930516602070455,2025-11-07 15h39.12.736514 +0530,
67,75,119,100,2,14,t,0.6843527001328766,None,14,2,100,5,258.6215826999396,,258.609887199942,258.6215826999396,259.606433799956,259.606433799956,259.62326479982585,260.307933999924,t,0.6843527001328766,None,Subject 02,001,2025-11-07_15h38.56.010,untitled,,2025.1.1,59.930516602070455,2025-11-07 15h39.12.736514 +0530,
40,55,62,101,3,14,l,3.323225899832323,None,14,3,101,3,260.32322609983385,,260.31164209987037,260.32322609983385,261.3084855999332,261.3084855999332,261.3252393999137,264.64497149991803,l,3.323225899832323,None,Subject 02,001,2025-11-07_15h38.56.010,untitled,,2025.1.1,59.930516602070455,2025-11-07 15h39.12.736514 +0530,
49,60,89,102,4,14,l,1.0448795999400318,None,14,4,102,4,264.6614550999366,,264.64848139998503,264.6614550999366,265.6477893998381,265.6477893998381,265.6647575998213,266.6979312999174,l,1.0448795999400318,None,Subject 02,001,2025-11-07_15h38.56.010,untitled,,2025.1.1,59.930516602070455,2025-11-07 15h39.12.736514 +0530,
11,30,7,103,5,14,l,0.39440950006246567,None,14,5,103,0,266.7144315999467,,266.70131199993193,266.7144315999467,267.69811749993823,267.69811749993823,267.7150286999531,268.0996033998672,l,0.39440950006246567,None,Subject 02,001,2025-11-07_15h38.56.010,untitled,,2025.1.1,59.930516602070455,2025-11-07 15h39.12.736514 +0530,
27,50,21,104,6,14,l,0.5882474000100046,None,14,6,104,2,268.1160666998476,,268.1035168999806,268.1160666998476,269.1008434998803,269.1008434998803,269.1174989999272,269.70126899983734,l,0.5882474000100046,None,Subject 02,001,2025-11-07_15h38.56.010,untitled,,2025.1.1,59.930516602070455,2025-11-07 15h39.12.736514 +0530,
