 ,thisN,thisTrialN,thisRepN,Studyslider.response,Studyslider.rt,test_words,reference,old_new,test_textbox.text,testmouse.x,testmouse.y,testmouse.leftButton,testmouse.midButton,testmouse.rightButton,testmouse.time,testmouse.clicked_name,trials.thisRepN,trials.thisTrialN,trials.thisN,trials.thisIndex,trials_2.thisRepN,trials_2.thisTrialN,trials_2.thisN,trials_2.thisIndex,thisRow.t,notes,trial.started,StudyText.started,Studyslider.started,trial.stopped,trials.Studyslider.response,trials.Studyslider.rt,test.started,Testtext.started,test_textbox.started,text.started,testmouse.started,Testtext.stopped,test.stopped,trials_2.test_textbox.text,trials_2.testmouse.x,trials_2.testmouse.y,trials_2.testmouse.leftButton,trials_2.testmouse.midButton,trials_2.testmouse.rightButton,trials_2.testmouse.time,trials_2.testmouse.clicked_name,participant,session,date,expName,expVersion,psychopyVersion,frameRate,expStart
cruise,0,0,0,1,4.2106081,,,,,,,,,,,,0,0,0,11,,,,,0.0451322,,0.0320989,0.0451322,0.0451322,4.2589823,1,4.2106081,,,,,,,,,,,,,,,,subject04,1,2025-10-19_16h34.06.345,word_priming,,2025.1.1,59.84852337,2025-10-19 16h36.09.139247 +0530
poster,1,1,0,1,1.4151747,,,,,,,,,,,,0,1,1,14,,,,,4.274099,,4.2633743,4.274099,4.274099,5.6939279,1,1.4151747,,,,,,,,,,,,,,,,subject04,1,2025-10-19_16h34.06.345,word_priming,,2025.1.1,59.84852337,2025-10-19 16h36.09.139247 +0530
police,2,2,0,1,1.0806269,,,,,,,,,,,,0,2,2,12,,,,,5.7089299,,5.6979331,5.7089299,5.7089299,6.7949626,1,1.0806269,,,,,,,,,,,,,,,,subject04,1,2025-10-19_16h34.06.345,word_priming,,2025.1.1,59.84852337,2025-10-19 16h36.09.139247 +0530
case,3,3,0,1,0.9312758,,,,,,,,,,,,0,3,3,10,,,,,6.8102833,,6.8004521,6.8102833,6.8102833,7.7457693,1,0.9312758,,,,,,,,,,,,,,,,subject04,1,2025-10-19_16h34.06.345,word_priming,,2025.1.1,59.84852337,2025-10-19 16h36.09.139247 +0530
keys,4,4,0,1,1.1306208,,,,,,,,,,,,0,4,4,13,,,,,7.7610072,,7.7503206,7.7610072,7.7610072,8.8967256,1,1.1306208,,,,,,,,,,,,,,,,subject04,1,2025-10-19_16h34.06.345,word_priming,,2025.1.1,59.84852337,2025-10-19 16h36.09.139247 +0530
chart,5,5,0,1,0.9163962,,,,,,,,,,,,0,5,5,6,,,,,8.9126,,8.900909,8.9126,8.9126,9.8313208,1,0.9163962,,,,,,,,,,,,,,,,subject04,1,2025-10-19_16h34.06.345,word_priming,,2025.1.1,59.84852337,2025-10-19 16h36.09.139247 +0530
laptop,6,6,0,1,0.9493523,,,,,,,,,,,,0,6,6,5,,,,,9.846404,,9.8340223,9.846404,9.846404,10.7991649,1,0.9493523,,,,,,,,,,,,,,,,subject04,1,2025-10-19_16h34.06.345,word_priming,,2025.1.1,59.84852337,2025-10-19 16h36.09.139247 +0530
marble,7,7,0,1,1.0147416,,,,,,,,,,,,0,7,7,3,,,,,10.8148082,,10.8025868,10.8148082,10.8148082,11.8334701,1,1.0147416,,,,,,,,,,,,,,,,subject04,1,2025-10-19_16h34.06.345,word_priming,,2025.1.1,59.84852337,2025-10-19 16h36.09.139247 +0530
board,8,8,0,1,0.9325973,,,,,,,,,,,,0,8,8,4,,,,,11.8491927,,11.8372309,11.8491927,11.8491927,12.7846836,1,0.9325973,,,,,,,,,,,,,,,,subject04,1,2025-10-19_16h34.06.345,word_priming,,2025.1.1,59.84852337,2025-10-19 16h36.09.139247 +0530
t-shirt,9,9,0,1,0.9475965,,,,,,,,,,,,0,9,9,7,,,,,12.7997334,,12.7887814,12.7997334,12.7997334,13.7519933,1,0.9475965,,,,,,,,,,,,,,,,subject04,1,2025-10-19_16h34.06.345,word_priming,,2025.1.1,59.84852337,2025-10-19 16h36.09.139247 +0530
mouse,10,10,0,1,1.1349216,,,,,,,,,,,,0,10,10,8,,,,,13.7681972,,13.7546346,13.7681972,13.7681972,14.903592,1,1.1349216,,,,,,,,,,,,,,,,subject04,1,2025-10-19_16h34.06.345,word_priming,,2025.1.1,59.84852337,2025-10-19 16h36.09.139247 +0530
cushion,11,11,0,1,1.0974983,,,,,,,,,,,,0,11,11,1,,,,,14.9190901,,14.9093992,14.9190901,14.9190901,16.0220012,1,1.0974983,,,,,,,,,,,,,,,,subject04,1,2025-10-19_16h34.06.345,word_priming,,2025.1.1,59.84852337,2025-10-19 16h36.09.139247 +0530
book,12,12,0,1,0.847685,,,,,,,,,,,,0,12,12,0,,,,,16.0368518,,16.0256342,16.0368518,16.0368518,16.8895857,1,0.847685,,,,,,,,,,,,,,,,subject04,1,2025-10-19_16h34.06.345,word_priming,,2025.1.1,59.84852337,2025-10-19 16h36.09.139247 +0530
pastry,13,13,0,1,1.7157779,,,,,,,,,,,,0,13,13,9,,,,,16.9050515,,16.8925211,16.9050515,16.9050515,18.6243039,1,1.7157779,,,,,,,,,,,,,,,,subject04,1,2025-10-19_16h34.06.345,word_priming,,2025.1.1,59.84852337,2025-10-19 16h36.09.139247 +0530
phone,14,14,0,1,0.9346681,,,,,,,,,,,,0,14,14,2,,,,,18.6394304,,18.6268822,18.6394304,18.6394304,19.5750431,1,0.9346681,,,,,,,,,,,,,,,,subject04,1,2025-10-19_16h34.06.345,word_priming,,2025.1.1,59.84852337,2025-10-19 16h36.09.139247 +0530
,0,0,0,,,_ru_se,cruise,old ,cruise,"[np.float64(0.018333333333333333), np.float64(0.0475), np.float64(0.04083333333333333)]","[np.float64(0.06416666666666666), np.float64(-0.3325), np.float64(-0.2966666666666667)]","[1, 1, 1]","[0, 0, 0]","[0, 0, 0]","[9.337148599966895, 13.190690699964762, 13.806524399959017]","[None, None, 'text']",,,,,0,0,0,6,19.612548,,,,,,,,19.6013583,19.612548,19.612548,19.612548,0.0263118,29.6210736,33.4082498,cruise,"[np.float64(0.018333333333333333), np.float64(0.0475), np.float64(0.04083333333333333)]","[np.float64(0.06416666666666666), np.float64(-0.3325), np.float64(-0.2966666666666667)]","[1, 1, 1]","[0, 0, 0]","[0, 0, 0]","[9.337148599966895, 13.190690699964762, 13.806524399959017]","[None, None, 'text']",subject04,1,2025-10-19_16h34.06.345,word_priming,,2025.1.1,59.84852337,2025-10-19 16h36.09.139247 +0530
,1,1,0,,,_a_bl_,marble,old ,marble,[np.float64(0.04083333333333333)],[np.float64(-0.2966666666666667)],[1],[0],[0],[5.036859599989839],['text'],,,,,0,1,1,11,33.423846,,,,,,,,33.4122089,33.423846,33.423846,33.423846,0.0036964,,38.4496278,marble,[np.float64(0.04083333333333333)],[np.float64(-0.2966666666666667)],[1],[0],[0],[5.036859599989839],['text'],subject04,1,2025-10-19_16h34.06.345,word_priming,,2025.1.1,59.84852337,2025-10-19 16h36.09.139247 +0530
,2,2,0,,,c_s_io_,cushion,old ,cushion,[np.float64(0.04083333333333333)],[np.float64(-0.2966666666666667)],[1],[0],[0],[10.356331299990416],['text'],,,,,0,2,2,14,38.4632789,,,,,,,,38.4525703,38.4632789,38.4632789,38.4632789,0.0027478,48.4747464,48.8091875,cushion,[np.float64(0.04083333333333333)],[np.float64(-0.2966666666666667)],[1],[0],[0],[10.356331299990416],['text'],subject04,1,2025-10-19_16h34.06.345,word_priming,,2025.1.1,59.84852337,2025-10-19 16h36.09.139247 +0530
,3,3,0,,,k_y_,keys,old ,keys,[np.float64(0.04083333333333333)],[np.float64(-0.2966666666666667)],[1],[0],[0],[2.766138500010129],['text'],,,,,0,3,3,8,48.8253512,,,,,,,,48.8119891,48.8253512,48.8253512,48.8253512,0.0025142,,51.5784229,keys,[np.float64(0.04083333333333333)],[np.float64(-0.2966666666666667)],[1],[0],[0],[2.766138500010129],['text'],subject04,1,2025-10-19_16h34.06.345,word_priming,,2025.1.1,59.84852337,2025-10-19 16h36.09.139247 +0530
,4,4,0,,,bo_t_e,bottle,new,bottle,[np.float64(0.04083333333333333)],[np.float64(-0.2966666666666667)],[1],[0],[0],[10.875396499992348],['text'],,,,,0,4,4,18,51.5937594,,,,,,,,51.5811237,51.5937594,51.5937594,51.5937594,0.0025776,61.6051279,62.4569205,bottle,[np.float64(0.04083333333333333)],[np.float64(-0.2966666666666667)],[1],[0],[0],[10.875396499992348],['text'],subject04,1,2025-10-19_16h34.06.345,word_priming,,2025.1.1,59.84852337,2025-10-19 16h36.09.139247 +0530
,5,5,0,,,c_m_ra,camera,new,camera,[np.float64(0.04083333333333333)],[np.float64(-0.2966666666666667)],[1],[0],[0],[3.735254500003066],['text'],,,,,0,5,5,19,62.4727069,,,,,,,,62.4603974,62.4727069,62.4727069,62.4727069,0.0033971,,66.1964799,camera,[np.float64(0.04083333333333333)],[np.float64(-0.2966666666666667)],[1],[0],[0],[3.735254500003066],['text'],subject04,1,2025-10-19_16h34.06.345,word_priming,,2025.1.1,59.84852337,2025-10-19 16h36.09.139247 +0530
,6,6,0,,,_o_rd,board,old ,board,[np.float64(0.04083333333333333)],[np.float64(-0.2966666666666667)],[1],[0],[0],[4.933404200011864],['text'],,,,,0,6,6,10,66.2109625,,,,,,,,66.1998037,66.2109625,66.2109625,66.2109625,0.0031219,,71.1335466,board,[np.float64(0.04083333333333333)],[np.float64(-0.2966666666666667)],[1],[0],[0],[4.933404200011864],['text'],subject04,1,2025-10-19_16h34.06.345,word_priming,,2025.1.1,59.84852337,2025-10-19 16h36.09.139247 +0530
,7,7,0,,,p_st_r,poster,old ,poster,[np.float64(0.04083333333333333)],[np.float64(-0.2966666666666667)],[1],[0],[0],[6.719999500026461],['text'],,,,,0,7,7,9,71.1484913,,,,,,,,71.1373654,71.1484913,71.1484913,71.1484913,0.0036831,,77.8577275,poster,[np.float64(0.04083333333333333)],[np.float64(-0.2966666666666667)],[1],[0],[0],[6.719999500026461],['text'],subject04,1,2025-10-19_16h34.06.345,word_priming,,2025.1.1,59.84852337,2025-10-19 16h36.09.139247 +0530
,8,8,0,,,c_s_,case,old ,case,[np.float64(0.04083333333333333)],[np.float64(-0.2966666666666667)],[1],[0],[0],[2.7514320999616757],['text'],,,,,0,8,8,5,77.872409,,,,,,,,77.8607938,77.872409,77.872409,77.872409,0.0029047,,80.6126487,case,[np.float64(0.04083333333333333)],[np.float64(-0.2966666666666667)],[1],[0],[0],[2.7514320999616757],['text'],subject04,1,2025-10-19_16h34.06.345,word_priming,,2025.1.1,59.84852337,2025-10-19 16h36.09.139247 +0530
,9,9,0,,,_ha_t,chart,old ,chart,[np.float64(0.04083333333333333)],[np.float64(-0.2966666666666667)],[1],[0],[0],[4.080701700004283],['text'],,,,,0,9,9,1,80.6283226,,,,,,,,80.6168574,80.6283226,80.6283226,80.6283226,0.0040216,,84.6979611,chart,[np.float64(0.04083333333333333)],[np.float64(-0.2966666666666667)],[1],[0],[0],[4.080701700004283],['text'],subject04,1,2025-10-19_16h34.06.345,word_priming,,2025.1.1,59.84852337,2025-10-19 16h36.09.139247 +0530
,10,10,0,,,p_s_ry,pastry,old ,pastry,[np.float64(0.04083333333333333)],[np.float64(-0.2966666666666667)],[1],[0],[0],[3.5181270000175573],['text'],,,,,0,10,10,4,84.7132017,,,,,,,,84.7006531,84.7132017,84.7132017,84.7132017,0.0025213,,88.2191956,pastry,[np.float64(0.04083333333333333)],[np.float64(-0.2966666666666667)],[1],[0],[0],[3.5181270000175573],['text'],subject04,1,2025-10-19_16h34.06.345,word_priming,,2025.1.1,59.84852337,2025-10-19 16h36.09.139247 +0530
,11,11,0,,,_ou_e,mouse,old ,mouse,[np.float64(0.04083333333333333)],[np.float64(-0.2966666666666667)],[1],[0],[0],[3.268294200010132],['text'],,,,,0,11,11,3,88.2336872,,,,,,,,88.2225594,88.2336872,88.2336872,88.2336872,0.0031562,,91.4912771,mouse,[np.float64(0.04083333333333333)],[np.float64(-0.2966666666666667)],[1],[0],[0],[3.268294200010132],['text'],subject04,1,2025-10-19_16h34.06.345,word_priming,,2025.1.1,59.84852337,2025-10-19 16h36.09.139247 +0530
,12,12,0,,,P_li_e,police,old ,police,[np.float64(0.04083333333333333)],[np.float64(-0.2966666666666667)],[1],[0],[0],[3.4129601000458933],['text'],,,,,0,12,12,7,91.5072255,,,,,,,,91.496714,91.5072255,91.5072255,91.5072255,0.0052999,,94.910066,police,[np.float64(0.04083333333333333)],[np.float64(-0.2966666666666667)],[1],[0],[0],[3.4129601000458933],['text'],subject04,1,2025-10-19_16h34.06.345,word_priming,,2025.1.1,59.84852337,2025-10-19 16h36.09.139247 +0530
,13,13,0,,,_ho_e,phone,old ,,[np.float64(0.04083333333333333)],[np.float64(-0.2966666666666667)],[1],[0],[0],[10.740336399991065],['text'],,,,,0,13,13,12,94.9249336,,,,,,,,94.9135169,94.9249336,94.9249336,94.9249336,0.0033087,104.9362475,105.6542084,,[np.float64(0.04083333333333333)],[np.float64(-0.2966666666666667)],[1],[0],[0],[10.740336399991065],['text'],subject04,1,2025-10-19_16h34.06.345,word_priming,,2025.1.1,59.84852337,2025-10-19 16h36.09.139247 +0530
,14,14,0,,,v_s_,vase,new,vast,[np.float64(0.04083333333333333)],[np.float64(-0.2966666666666667)],[1],[0],[0],[8.120790999964811],['text'],,,,,0,14,14,17,105.6695972,,,,,,,,105.6589525,105.6695972,105.6695972,105.6695972,0.004564,,113.7801477,vast,[np.float64(0.04083333333333333)],[np.float64(-0.2966666666666667)],[1],[0],[0],[8.120790999964811],['text'],subject04,1,2025-10-19_16h34.06.345,word_priming,,2025.1.1,59.84852337,2025-10-19 16h36.09.139247 +0530
,15,15,0,,,l_pt_p,laptop,old ,laptop,[np.float64(0.04083333333333333)],[np.float64(-0.2966666666666667)],[1],[0],[0],[3.7672107000253163],['text'],,,,,0,15,15,0,113.7953381,,,,,,,,113.7834615,113.7953381,113.7953381,113.7953381,0.0031491,,117.5511188,laptop,[np.float64(0.04083333333333333)],[np.float64(-0.2966666666666667)],[1],[0],[0],[3.7672107000253163],['text'],subject04,1,2025-10-19_16h34.06.345,word_priming,,2025.1.1,59.84852337,2025-10-19 16h36.09.139247 +0530
,16,16,0,,,ta_l_,table,new,table,[np.float64(0.04083333333333333)],[np.float64(-0.2966666666666667)],[1],[0],[0],[2.8013156999950297],['text'],,,,,0,16,16,15,117.5657082,,,,,,,,117.5544117,117.5657082,117.5657082,117.5657082,0.0031228,,120.356196,table,[np.float64(0.04083333333333333)],[np.float64(-0.2966666666666667)],[1],[0],[0],[2.8013156999950297],['text'],subject04,1,2025-10-19_16h34.06.345,word_priming,,2025.1.1,59.84852337,2025-10-19 16h36.09.139247 +0530
,17,17,0,,,t_hi_t,tshirt,old ,tshirt,[np.float64(0.04083333333333333)],[np.float64(-0.2966666666666667)],[1],[0],[0],[4.08239280001726],['text'],,,,,0,17,17,2,120.3695175,,,,,,,,120.3594207,120.3695175,120.3695175,120.3695175,0.0030563,,124.4422845,tshirt,[np.float64(0.04083333333333333)],[np.float64(-0.2966666666666667)],[1],[0],[0],[4.08239280001726],['text'],subject04,1,2025-10-19_16h34.06.345,word_priming,,2025.1.1,59.84852337,2025-10-19 16h36.09.139247 +0530
,18,18,0,,,p_nc_l,pencil,new,pencil,[np.float64(0.04083333333333333)],[np.float64(-0.2966666666666667)],[1],[0],[0],[3.3833438000292517],['text'],,,,,0,18,18,16,124.4566351,,,,,,,,124.4457856,124.4566351,124.4566351,124.4566351,0.0033132,,127.8295389,pencil,[np.float64(0.04083333333333333)],[np.float64(-0.2966666666666667)],[1],[0],[0],[3.3833438000292517],['text'],subject04,1,2025-10-19_16h34.06.345,word_priming,,2025.1.1,59.84852337,2025-10-19 16h36.09.139247 +0530
,19,19,0,,,_oo_,book,old ,pool,[np.float64(0.04083333333333333)],[np.float64(-0.2966666666666667)],[1],[0],[0],[3.2330319000175223],['text'],,,,,0,19,19,13,127.8443739,,,,,,,,127.8324497,127.8443739,127.8443739,127.8443739,0.0027445,,131.0659704,pool,[np.float64(0.04083333333333333)],[np.float64(-0.2966666666666667)],[1],[0],[0],[3.2330319000175223],['text'],subject04,1,2025-10-19_16h34.06.345,word_priming,,2025.1.1,59.84852337,2025-10-19 16h36.09.139247 +0530
