prime_word,prime_gender,target_image,target_gender,thisN,thisTrialN,thisRepN,key_resp.keys,key_resp.rt,key_resp.duration,trials.thisRepN,trials.thisTrialN,trials.thisN,trials.thisIndex,thisRow.t,notes,Instructions.started,text_2.started,key_resp_2.started,Instructions.stopped,key_resp_2.keys,key_resp_2.rt,key_resp_2.duration,trial.started,fixation.started,prime.started,fixation.stopped,prime.stopped,target_picture.started,key_resp.started,trial.stopped,trials.key_resp.keys,trials.key_resp.rt,trials.key_resp.duration,Thankyou.started,text.started,participant,session,date,expName,expVersion,psychopyVersion,frameRate,expStart,
,,,,,,,,,,,,,,,,0.004145100014284253,0.008972199982963502,0.008972199982963502,29.7975446000346,space,29.768407099996693,None,,,,,,,,,,,,,,Subject_06,001,2025-11-24_01h14.09.153,Semantic priming with gender association,,2025.1.1,60.34431257309445,2025-11-24 01h14.27.507731 +0530,
Mechanic,masculine,f1.jpg,female,0,0,0,f,0.40035219996934757,None,0,0,0,1,29.821565799997188,,,,,,,,,29.816127500031143,29.821565799997188,30.309797000023536,30.32569510000758,31.311148100008722,31.311148100008722,31.311148100008722,31.72814289998496,f,0.40035219996934757,None,,,Subject_06,001,2025-11-24_01h14.09.153,Semantic priming with gender association,,2025.1.1,60.34431257309445,2025-11-24 01h14.27.507731 +0530,
Pilot,masculine,m8.jpg,male,1,1,0,m,0.3263657999923453,None,0,1,1,14,31.744093300017994,,,,,,,,,31.73496420000447,31.744093300017994,32.228104699985124,32.24464769999031,33.22955119999824,33.22955119999824,33.22955119999824,33.56376420002198,m,0.3263657999923453,None,,,Subject_06,001,2025-11-24_01h14.09.153,Semantic priming with gender association,,2025.1.1,60.34431257309445,2025-11-24 01h14.27.507731 +0530,
Ballerina,feminine,m10.jpg,male,2,2,0,m,0.5453951000235975,None,0,2,2,18,33.60068670002511,,,,,,,,,33.59397719998378,33.60068670002511,34.06393910001498,34.11312170000747,35.06503980001435,35.06503980001435,35.06503980001435,35.615708200028166,m,0.5453951000235975,None,,,Subject_06,001,2025-11-24_01h14.09.153,Semantic priming with gender association,,2025.1.1,60.34431257309445,2025-11-24 01h14.27.507731 +0530,
Baker,neutral,f7.jpg,female,3,3,0,f,0.3183159999898635,None,0,3,3,53,35.632035800023004,,,,,,,,,35.621656300034374,35.632035800023004,36.115830400027335,36.132390399987344,37.117173700011335,37.117173700011335,37.117173700011335,37.45092229999136,f,0.3183159999898635,None,,,Subject_06,001,2025-11-24_01h14.09.153,Semantic priming with gender association,,2025.1.1,60.34431257309445,2025-11-24 01h14.27.507731 +0530,
Lawyer,masculine,m5.jpeg,male,4,4,0,m,0.510027100041043,None,0,4,4,8,37.46727040002588,,,,,,,,,37.457124100008514,37.46727040002588,37.95089680003002,37.967718600004446,38.95196630002465,38.95196630002465,38.95196630002465,39.470848500030115,m,0.510027100041043,None,,,Subject_06,001,2025-11-24_01h14.09.153,Semantic priming with gender association,,2025.1.1,60.34431257309445,2025-11-24 01h14.27.507731 +0530,
Reporter,neutral,m3.jpg,male,5,5,0,m,0.4439682000083849,None,0,5,5,44,39.48731510003563,,,,,,,,,39.483450300002005,39.48731510003563,39.97047290002229,39.986411900026724,40.971350400010124,40.971350400010124,40.971350400010124,41.42191229999298,m,0.4439682000083849,None,,,Subject_06,001,2025-11-24_01h14.09.153,Semantic priming with gender association,,2025.1.1,60.34431257309445,2025-11-24 01h14.27.507731 +0530,
Reporter,neutral,f3.jpg,female,6,6,0,f,0.32802919996902347,None,0,6,6,45,41.46827040001517,,,,,,,,,41.4574090000242,41.46827040001517,41.92227430001367,41.972416100034025,42.92297700000927,42.92297700000927,42.92297700000927,43.257230999995954,f,0.32802919996902347,None,,,Subject_06,001,2025-11-24_01h14.09.153,Semantic priming with gender association,,2025.1.1,60.34431257309445,2025-11-24 01h14.27.507731 +0530,
Secretary,feminine,f4.jpg,female,7,7,0,f,0.543131300015375,None,0,7,7,27,43.27332069998374,,,,,,,,,43.268222799990326,43.27332069998374,43.75772390002385,43.773708200023975,44.758773100038525,44.758773100038525,44.758773100038525,45.31005470000673,f,0.543131300015375,None,,,Subject_06,001,2025-11-24_01h14.09.153,Semantic priming with gender association,,2025.1.1,60.34431257309445,2025-11-24 01h14.27.507731 +0530,
Homemaker,feminine,m2.jpg,male,8,8,0,m,0.6557412999682128,None,0,8,8,22,45.33058750000782,,,,,,,,,45.32430189999286,45.33058750000782,45.810286100022495,45.84294310002588,46.810428600001615,46.810428600001615,46.810428600001615,47.47866510000313,m,0.6557412999682128,None,,,Subject_06,001,2025-11-24_01h14.09.153,Semantic priming with gender association,,2025.1.1,60.34431257309445,2025-11-24 01h14.27.507731 +0530,
Doctor,masculine,f7.jpg,female,9,9,0,f,0.5691419999930076,None,0,9,9,13,47.494100800016895,,,,,,,,,47.486911199986935,47.494100800016895,47.97878880001372,47.99568900000304,48.979781900008675,48.979781900008675,48.979781900008675,49.56444180000108,f,0.5691419999930076,None,,,Subject_06,001,2025-11-24_01h14.09.153,Semantic priming with gender association,,2025.1.1,60.34431257309445,2025-11-24 01h14.27.507731 +0530,
Nurse,feminine,f3.jpg,female,10,10,0,f,0.49109229998430237,None,0,10,10,25,49.61284479999449,,,,,,,,,49.6038467999897,49.61284479999449,50.06436080002459,50.11447159998352,51.06599550001556,51.06599550001556,51.06599550001556,51.566647200030275,f,0.49109229998430237,None,,,Subject_06,001,2025-11-24_01h14.09.153,Semantic priming with gender association,,2025.1.1,60.34431257309445,2025-11-24 01h14.27.507731 +0530,
Nanny,feminine,m9.png,male,11,11,0,m,0.6876617999514565,None,0,11,11,36,51.61467129999073,,,,,,,,,51.60735200002091,51.61467129999073,52.066520099993795,52.11630619998323,53.06785320001654,53.06785320001654,53.06785320001654,53.768890300008934,m,0.6876617999514565,None,,,Subject_06,001,2025-11-24_01h14.09.153,Semantic priming with gender association,,2025.1.1,60.34431257309445,2025-11-24 01h14.27.507731 +0530,
Student,neutral,m2.jpg,male,12,12,0,m,0.8732945999945514,None,0,12,12,42,53.78632170002675,,,,,,,,,53.781538199982606,53.78632170002675,54.26904210000066,54.28578520001611,55.27035890001571,55.27035890001571,55.27035890001571,56.15500060003251,m,0.8732945999945514,None,,,Subject_06,001,2025-11-24_01h14.09.153,Semantic priming with gender association,,2025.1.1,60.34431257309445,2025-11-24 01h14.27.507731 +0530,
Interpreter,neutral,f6.jpg,female,13,13,0,f,0.5061343000270426,None,0,13,13,51,56.17128760000924,,,,,,,,,56.163437100010924,56.17128760000924,56.654928000003565,56.671918100037146,57.65584180003498,57.65584180003498,57.65584180003498,58.17364320001798,f,0.5061343000270426,None,,,Subject_06,001,2025-11-24_01h14.09.153,Semantic priming with gender association,,2025.1.1,60.34431257309445,2025-11-24 01h14.27.507731 +0530,
Republican,neutral,f5.jpeg,female,14,14,0,f,0.5574416000163183,None,0,14,14,49,58.18991710001137,,,,,,,,,58.178646599990316,58.18991710001137,58.673435600008816,58.69018320000032,59.67521890002536,59.67521890002536,59.67521890002536,60.242776300001424,f,0.5574416000163183,None,,,Subject_06,001,2025-11-24_01h14.09.153,Semantic priming with gender association,,2025.1.1,60.34431257309445,2025-11-24 01h14.27.507731 +0530,
Democrat,neutral,f4.jpg,female,15,15,0,f,0.3901765999617055,None,0,15,15,47,60.25883360003354,,,,,,,,,60.251121899986174,60.25883360003354,60.74203910003416,60.75917119998485,61.744007600005716,61.744007600005716,61.744007600005716,62.144675499992445,f,0.3901765999617055,None,,,Subject_06,001,2025-11-24_01h14.09.153,Semantic priming with gender association,,2025.1.1,60.34431257309445,2025-11-24 01h14.27.507731 +0530,
Airshostess,feminine,m6.jpg,male,16,16,0,m,0.738988499972038,None,0,16,16,30,62.160714099998586,,,,,,,,,62.15574950003065,62.160714099998586,62.64497570000822,62.6615063000354,63.64648870000383,63.64648870000383,63.64648870000383,64.397793799988,m,0.738988499972038,None,,,Subject_06,001,2025-11-24_01h14.09.153,Semantic priming with gender association,,2025.1.1,60.34431257309445,2025-11-24 01h14.27.507731 +0530,
Democrat,neutral,m4.jpg,male,17,17,0,f,0.3682398999808356,None,0,17,17,46,64.41317549999803,,,,,,,,,64.40817730000708,64.41317549999803,64.89743620000081,64.91360880003776,65.89869980001822,65.89869980001822,65.89869980001822,66.28215640003327,f,0.3682398999808356,None,,,Subject_06,001,2025-11-24_01h14.09.153,Semantic priming with gender association,,2025.1.1,60.34431257309445,2025-11-24 01h14.27.507731 +0530,
Author,neutral,f1.jpg,female,18,18,0,f,0.8818449999671429,None,0,18,18,41,66.2985839000321,,,,,,,,,66.28942570002982,66.2985839000321,66.78287250001449,66.79945920000318,67.78394560003653,67.78394560003653,67.78394560003653,68.66893049998907,f,0.8818449999671429,None,,,Subject_06,001,2025-11-24_01h14.09.153,Semantic priming with gender association,,2025.1.1,60.34431257309445,2025-11-24 01h14.27.507731 +0530,
Nurse,feminine,m3.jpg,male,19,19,0,m,0.4507910999818705,None,0,19,19,24,68.68782890000148,,,,,,,,,68.6831344999955,68.68782890000148,69.16861250001239,69.20247369998833,70.17001870000968,70.17001870000968,70.17001870000968,70.6374230000074,m,0.4507910999818705,None,,,Subject_06,001,2025-11-24_01h14.09.153,Semantic priming with gender association,,2025.1.1,60.34431257309445,2025-11-24 01h14.27.507731 +0530,
Prostitute,feminine,m8.jpg,male,20,20,0,m,0.483421900018584,None,0,20,20,34,70.65361829998437,,,,,,,,,70.6448504999862,70.65361829998437,71.13800770003581,71.15384889999405,72.13897349999752,72.13897349999752,72.13897349999752,72.62301029998343,m,0.483421900018584,None,,,Subject_06,001,2025-11-24_01h14.09.153,Semantic priming with gender association,,2025.1.1,60.34431257309445,2025-11-24 01h14.27.507731 +0530,
Secretary,feminine,m4.jpg,male,21,21,0,m,1.589703899982851,None,0,21,21,26,72.63937540003099,,,,,,,,,72.63400580000598,72.63937540003099,73.12452930002473,73.14031009998871,74.12412009999389,74.12412009999389,74.12412009999389,75.72603389999131,m,1.589703899982851,None,,,Subject_06,001,2025-11-24_01h14.09.153,Semantic priming with gender association,,2025.1.1,60.34431257309445,2025-11-24 01h14.27.507731 +0530,
Hunter,masculine,f4.jpg,female,22,22,0,f,1.2638665999984369,None,0,22,22,7,75.74277060001623,,,,,,,,,75.73694670002442,75.74277060001623,76.22752000001492,76.24334700003965,77.22786859999178,77.22786859999178,77.22786859999178,78.49602910003159,f,1.2638665999984369,None,,,Subject_06,001,2025-11-24_01h14.09.153,Semantic priming with gender association,,2025.1.1,60.34431257309445,2025-11-24 01h14.27.507731 +0530,
Blacksmith,masculine,f9.jpg,female,23,23,0,f,0.8172359999734908,None,0,23,23,17,78.51231750001898,,,,,,,,,78.50597910000943,78.51231750001898,78.99628680001479,79.01289409998572,79.99742219998734,79.99742219998734,79.99742219998734,80.83184669999173,f,0.8172359999734908,None,,,Subject_06,001,2025-11-24_01h14.09.153,Semantic priming with gender association,,2025.1.1,60.34431257309445,2025-11-24 01h14.27.507731 +0530,
Hunter,masculine,m4.jpg,male,24,24,0,m,0.7946184999891557,None,0,24,24,6,80.84823180001695,,,,,,,,,80.84294140001293,80.84823180001695,81.33188599999994,81.34854000003543,82.33287179999752,82.33287179999752,82.33287179999752,83.13481060002232,m,0.7946184999891557,None,,,Subject_06,001,2025-11-24_01h14.09.153,Semantic priming with gender association,,2025.1.1,60.34431257309445,2025-11-24 01h14.27.507731 +0530,
Homemaker,feminine,f2.jpeg,female,25,25,0,f,0.5367474000086077,None,0,25,25,23,83.15085380000528,,,,,,,,,83.14235580002423,83.15085380000528,83.63463079999201,83.65107269998407,84.63562240003375,84.63562240003375,84.63562240003375,85.18674249999458,f,0.5367474000086077,None,,,Subject_06,001,2025-11-24_01h14.09.153,Semantic priming with gender association,,2025.1.1,60.34431257309445,2025-11-24 01h14.27.507731 +0530,
Driver,masculine,m6.jpg,male,26,26,0,m,0.4928331999690272,None,0,26,26,10,85.20219939999515,,,,,,,,,85.19779489998473,85.20219939999515,85.68675380002242,85.70326660003047,86.68776669999352,86.68776669999352,86.68776669999352,87.18894560000626,m,0.4928331999690272,None,,,Subject_06,001,2025-11-24_01h14.09.153,Semantic priming with gender association,,2025.1.1,60.34431257309445,2025-11-24 01h14.27.507731 +0530,
Banker,masculine,f2.jpeg,female,27,27,0,f,0.5157145999837667,None,0,27,27,3,87.20578540000133,,,,,,,,,87.19542549998732,87.20578540000133,87.68975830002455,87.70549750002101,88.69042559998343,88.69042559998343,88.69042559998343,89.20816450001439,f,0.5157145999837667,None,,,Subject_06,001,2025-11-24_01h14.09.153,Semantic priming with gender association,,2025.1.1,60.34431257309445,2025-11-24 01h14.27.507731 +0530,
Prostitute,feminine,f8.jpeg,female,28,28,0,f,0.645638299989514,None,0,28,28,35,89.22481749998406,,,,,,,,,89.22058580000885,89.22481749998406,89.70805010001641,89.72435470001074,90.70909399999073,90.70909399999073,90.70909399999073,91.36009510001168,f,0.645638299989514,None,,,Subject_06,001,2025-11-24_01h14.09.153,Semantic priming with gender association,,2025.1.1,60.34431257309445,2025-11-24 01h14.27.507731 +0530,
Republican,neutral,m5.jpeg,male,29,29,0,m,0.49934350000694394,None,0,29,29,48,91.37638329999754,,,,,,,,,91.3661425000173,91.37638329999754,91.86016710003605,91.87674040003913,92.86149199999636,92.86149199999636,92.86149199999636,93.36208649998298,m,0.49934350000694394,None,,,Subject_06,001,2025-11-24_01h14.09.153,Semantic priming with gender association,,2025.1.1,60.34431257309445,2025-11-24 01h14.27.507731 +0530,
Student,neutral,f2.jpeg,female,30,30,0,f,0.6184691999806091,None,0,30,30,43,93.37844810000388,,,,,,,,,93.36879249999765,93.37844810000388,93.8619708000333,93.87871980003547,94.86403769999743,94.86403769999743,94.86403769999743,95.49811980000231,f,0.6184691999806091,None,,,Subject_06,001,2025-11-24_01h14.09.153,Semantic priming with gender association,,2025.1.1,60.34431257309445,2025-11-24 01h14.27.507731 +0530,
Librarian,feminine,m5.jpeg,male,31,31,0,m,0.5288957000011578,None,0,31,31,28,95.51430410001194,,,,,,,,,95.5038307000068,95.51430410001194,95.99787680001464,96.01470320002409,96.99903690000065,96.99903690000065,96.99903690000065,97.53359320003074,m,0.5288957000011578,None,,,Subject_06,001,2025-11-24_01h14.09.153,Semantic priming with gender association,,2025.1.1,60.34431257309445,2025-11-24 01h14.27.507731 +0530,
Lawyer,masculine,f5.jpeg,female,32,32,0,m,0.29389690002426505,None,0,32,32,9,97.54976780002471,,,,,,,,,97.53803960001096,97.54976780002471,98.03462210000725,98.05024040001445,99.03447409998626,99.03447409998626,99.03447409998626,99.33593629999086,m,0.29389690002426505,None,,,Subject_06,001,2025-11-24_01h14.09.153,Semantic priming with gender association,,2025.1.1,60.34431257309445,2025-11-24 01h14.27.507731 +0530,
Artist,neutral,m10.jpg,male,33,33,0,m,1.1926957000396214,None,0,33,33,38,99.37569070002064,,,,,,,,,99.36757070000749,99.37569070002064,99.83593539998401,99.8861210999894,100.83694030001061,100.83694030001061,100.83694030001061,102.03888569999253,m,1.1926957000396214,None,,,Subject_06,001,2025-11-24_01h14.09.153,Semantic priming with gender association,,2025.1.1,60.34431257309445,2025-11-24 01h14.27.507731 +0530,
Artist,neutral,f10.jpg,female,34,34,0,f,0.4859174999874085,None,0,34,34,39,102.0549633000046,,,,,,,,,102.04515850002645,102.0549633000046,102.53853379999055,102.55528510001022,103.53946360002737,103.53946360002737,103.53946360002737,104.04041710001184,f,0.4859174999874085,None,,,Subject_06,001,2025-11-24_01h14.09.153,Semantic priming with gender association,,2025.1.1,60.34431257309445,2025-11-24 01h14.27.507731 +0530,
Banker,masculine,m2.jpg,male,35,35,0,m,0.6802384000038728,None,0,35,35,2,104.05668189999415,,,,,,,,,104.05114719999256,104.05668189999415,104.54093550000107,104.55699320003623,105.54198179999366,105.54198179999366,105.54198179999366,106.2265017000027,m,0.6802384000038728,None,,,Subject_06,001,2025-11-24_01h14.09.153,Semantic priming with gender association,,2025.1.1,60.34431257309445,2025-11-24 01h14.27.507731 +0530,
Author,neutral,m1.jpg,male,36,36,0,f,0.5920340999728069,None,0,36,36,40,106.24278999998933,,,,,,,,,106.23653850000119,106.24278999998933,106.72663049999392,106.74305960000493,107.7276453000377,107.7276453000377,107.7276453000377,108.32922990003135,f,0.5920340999728069,None,,,Subject_06,001,2025-11-24_01h14.09.153,Semantic priming with gender association,,2025.1.1,60.34431257309445,2025-11-24 01h14.27.507731 +0530,
Driver,masculine,f6.jpg,female,37,37,0,f,0.7266131999786012,None,0,37,37,11,108.34482619998744,,,,,,,,,108.33904530003201,108.34482619998744,108.82852089998778,108.84585590002825,109.83057310001459,109.83057310001459,109.83057310001459,110.56460610002978,f,0.7266131999786012,None,,,Subject_06,001,2025-11-24_01h14.09.153,Semantic priming with gender association,,2025.1.1,60.34431257309445,2025-11-24 01h14.27.507731 +0530,
Mechanic,masculine,m1.jpg,male,38,38,0,m,0.5934154000133276,None,0,38,38,0,110.58066730003338,,,,,,,,,110.57471730001271,110.58066730003338,111.0651503999834,111.08102290000534,112.0659708000021,112.0659708000021,112.0659708000021,112.66666410001926,m,0.5934154000133276,None,,,Subject_06,001,2025-11-24_01h14.09.153,Semantic priming with gender association,,2025.1.1,60.34431257309445,2025-11-24 01h14.27.507731 +0530,
Ballerina,feminine,f10.jpg,female,39,39,0,f,0.5147640000213869,None,0,39,39,19,112.68298959999811,,,,,,,,,112.67570190003607,112.68298959999811,113.16663130000234,113.18330690002767,114.16848839999875,114.16848839999875,114.16848839999875,114.68626079999376,f,0.5147640000213869,None,,,Subject_06,001,2025-11-24_01h14.09.153,Semantic priming with gender association,,2025.1.1,60.34431257309445,2025-11-24 01h14.27.507731 +0530,
Engineer,masculine,m3.jpg,male,40,40,0,m,0.3924406999722123,None,0,40,40,4,114.70392800000263,,,,,,,,,114.69962530001067,114.70392800000263,115.18587739998475,115.21875649999129,116.18698649998987,116.18698649998987,116.18698649998987,116.58736689999932,m,0.3924406999722123,None,,,Subject_06,001,2025-11-24_01h14.09.153,Semantic priming with gender association,,2025.1.1,60.34431257309445,2025-11-24 01h14.27.507731 +0530,
Babysitter,feminine,m1.jpg,male,41,41,0,f,0.9356684999656864,None,0,41,41,20,116.60367769998265,,,,,,,,,116.59862010000506,116.60367769998265,117.08781260001706,117.10410830000183,118.08944150002208,118.08944150002208,118.08944150002208,119.04052859998774,f,0.9356684999656864,None,,,Subject_06,001,2025-11-24_01h14.09.153,Semantic priming with gender association,,2025.1.1,60.34431257309445,2025-11-24 01h14.27.507731 +0530,
Interpreter,neutral,m6.jpg,male,42,42,0,m,0.5292587999720126,None,0,42,42,50,119.05671309999889,,,,,,,,,119.05174080003053,119.05671309999889,119.54035700001987,119.55716959998244,120.54130380001152,120.54130380001152,120.54130380001152,121.0757569000125,m,0.5292587999720126,None,,,Subject_06,001,2025-11-24_01h14.09.153,Semantic priming with gender association,,2025.1.1,60.34431257309445,2025-11-24 01h14.27.507731 +0530,
Teacher,feminine,f7.jpg,female,43,43,0,f,0.5846179000218399,None,0,43,43,33,121.09199719998287,,,,,,,,,121.08286180003779,121.09199719998287,121.57651330000954,121.59231800003909,122.57748460001312,122.57748460001312,122.57748460001312,123.17875630001072,f,0.5846179000218399,None,,,Subject_06,001,2025-11-24_01h14.09.153,Semantic priming with gender association,,2025.1.1,60.34431257309445,2025-11-24 01h14.27.507731 +0530,
Teacher,feminine,m7.jpg,male,44,44,0,f,0.4450040000374429,None,0,44,44,32,123.19452920003096,,,,,,,,,123.18689280003309,123.19452920003096,123.67803970002569,123.6947803000221,124.67989870003657,124.67989870003657,124.67989870003657,125.1305188999977,f,0.4450040000374429,None,,,Subject_06,001,2025-11-24_01h14.09.153,Semantic priming with gender association,,2025.1.1,60.34431257309445,2025-11-24 01h14.27.507731 +0530,
Baker,neutral,m7.jpg,male,45,45,0,m,0.712625099986326,None,0,45,45,52,125.14785609999672,,,,,,,,,125.14271819998976,125.14785609999672,125.63058210001327,125.64717090001795,126.63146980002057,126.63146980002057,126.63146980002057,127.34983590000775,m,0.712625099986326,None,,,Subject_06,001,2025-11-24_01h14.09.153,Semantic priming with gender association,,2025.1.1,60.34431257309445,2025-11-24 01h14.27.507731 +0530,
Babysitter,feminine,f1.jpg,female,46,46,0,f,1.554148300027009,None,0,46,46,21,127.36581129999831,,,,,,,,,127.3583118999959,127.36581129999831,127.84944920003181,127.86633849999635,128.85071510000853,128.85071510000853,128.85071510000853,130.4192846000078,f,1.554148300027009,None,,,Subject_06,001,2025-11-24_01h14.09.153,Semantic priming with gender association,,2025.1.1,60.34431257309445,2025-11-24 01h14.27.507731 +0530,
Nanny,feminine,f9.jpg,female,47,47,0,f,0.4945575000019744,None,0,47,47,37,130.43581860000268,,,,,,,,,130.43067239999073,130.43581860000268,130.91931120003574,130.93606570002157,131.9213180000079,131.9213180000079,131.9213180000079,132.4221424999996,f,0.4945575000019744,None,,,Subject_06,001,2025-11-24_01h14.09.153,Semantic priming with gender association,,2025.1.1,60.34431257309445,2025-11-24 01h14.27.507731 +0530,
Airshostess,feminine,f6.jpg,female,48,48,0,f,0.48304650001227856,None,0,48,48,31,132.43976139998995,,,,,,,,,132.4349492000183,132.43976139998995,132.92188630002784,132.95518570003333,133.92308710003272,133.92308710003272,133.92308710003272,134.40737070003524,f,0.48304650001227856,None,,,Subject_06,001,2025-11-24_01h14.09.153,Semantic priming with gender association,,2025.1.1,60.34431257309445,2025-11-24 01h14.27.507731 +0530,
Pilot,masculine,f8.jpeg,female,49,49,0,f,0.5479027999681421,None,0,49,49,15,134.42365569999674,,,,,,,,,134.41705990000628,134.42365569999674,134.907257999992,134.9239380999934,135.9090312999906,135.9090312999906,135.9090312999906,136.45926730002975,f,0.5479027999681421,None,,,Subject_06,001,2025-11-24_01h14.09.153,Semantic priming with gender association,,2025.1.1,60.34431257309445,2025-11-24 01h14.27.507731 +0530,
Engineer,masculine,f3.jpg,female,50,50,0,f,0.6685701999813318,None,0,50,50,5,136.50630649999948,,,,,,,,,136.49689250002848,136.50630649999948,136.95941250002943,137.00964100001147,137.96121650002897,137.96121650002897,137.96121650002897,138.6454764000373,f,0.6685701999813318,None,,,Subject_06,001,2025-11-24_01h14.09.153,Semantic priming with gender association,,2025.1.1,60.34431257309445,2025-11-24 01h14.27.507731 +0530,
Librarian,feminine,f5.jpeg,female,51,51,0,f,0.4834174999850802,None,0,51,51,29,138.6618879000307,,,,,,,,,138.6509381000069,138.6618879000307,139.14569520001533,139.16339970001718,140.14658380002948,140.14658380002948,140.14658380002948,140.63083460001508,f,0.4834174999850802,None,,,Subject_06,001,2025-11-24_01h14.09.153,Semantic priming with gender association,,2025.1.1,60.34431257309445,2025-11-24 01h14.27.507731 +0530,
Doctor,masculine,m7.jpg,male,52,52,0,m,0.6157213999540545,None,0,52,52,12,140.64709440001752,,,,,,,,,140.64258240000345,140.64709440001752,141.13286409998545,141.14840950001962,142.1484194000368,142.13186620001215,142.13186620001215,142.75010810000822,m,0.6157213999540545,None,,,Subject_06,001,2025-11-24_01h14.09.153,Semantic priming with gender association,,2025.1.1,60.34431257309445,2025-11-24 01h14.27.507731 +0530,
Blacksmith,masculine,m9.png,male,53,53,0,m,0.5947370000067167,None,0,53,53,16,142.79769119998673,,,,,,,,,142.78928510000696,142.79769119998673,143.24988339998526,143.30023019999499,144.25104770000326,144.25104770000326,144.25104770000326,144.85260590002872,m,0.5947370000067167,None,,,Subject_06,001,2025-11-24_01h14.09.153,Semantic priming with gender association,,2025.1.1,60.34431257309445,2025-11-24 01h14.27.507731 +0530,
Student,neutral,f2.jpeg,female,54,0,1,f,0.9072532000136562,None,1,0,54,43,144.8689131999854,,,,,,,,,144.86054920003517,144.8689131999854,145.3525013999897,145.3688057999825,146.35343170003034,146.35343170003034,146.35343170003034,147.27174709999235,f,0.9072532000136562,None,,,Subject_06,001,2025-11-24_01h14.09.153,Semantic priming with gender association,,2025.1.1,60.34431257309445,2025-11-24 01h14.27.507731 +0530,
Engineer,masculine,f3.jpg,female,55,1,1,m,0.45171459997072816,None,1,1,55,5,147.3194234999828,,,,,,,,,147.30938220000826,147.3194234999828,147.7714347000001,147.8218605000293,148.77272410003934,148.77272410003934,148.77272410003934,149.24003510002512,m,0.45171459997072816,None,,,Subject_06,001,2025-11-24_01h14.09.153,Semantic priming with gender association,,2025.1.1,60.34431257309445,2025-11-24 01h14.27.507731 +0530,
Baker,neutral,f7.jpg,female,56,2,1,f,0.4409058999735862,None,1,2,56,53,149.25647520000348,,,,,,,,,149.24713680002606,149.25647520000348,149.7400548000005,149.75684680003906,150.74177800002508,150.74177800002508,150.74177800002508,151.1924915999989,f,0.4409058999735862,None,,,Subject_06,001,2025-11-24_01h14.09.153,Semantic priming with gender association,,2025.1.1,60.34431257309445,2025-11-24 01h14.27.507731 +0530,
Pilot,masculine,m8.jpg,male,57,3,1,m,0.9017631000024267,None,1,3,57,14,151.20889910002006,,,,,,,,,151.1999599999981,151.20889910002006,151.69260549999308,151.7091492000036,152.69364960002713,152.69364960002713,152.69364960002713,153.61198510002578,m,0.9017631000024267,None,,,Subject_06,001,2025-11-24_01h14.09.153,Semantic priming with gender association,,2025.1.1,60.34431257309445,2025-11-24 01h14.27.507731 +0530,
Lawyer,masculine,f5.jpeg,female,58,4,1,f,0.5939790999982506,None,1,4,58,9,153.62818739999784,,,,,,,,,153.61923680000473,153.62818739999784,154.11183000000892,154.12844940001378,155.11284280003747,155.11284280003747,155.11284280003747,155.71441190002952,f,0.5939790999982506,None,,,Subject_06,001,2025-11-24_01h14.09.153,Semantic priming with gender association,,2025.1.1,60.34431257309445,2025-11-24 01h14.27.507731 +0530,
Secretary,feminine,m4.jpg,male,59,5,1,m,0.6012459000339732,None,1,5,59,26,155.73210770002333,,,,,,,,,155.7268048999831,155.73210770002333,156.2143183000153,156.24789950001286,157.21540380001534,157.21540380001534,157.21540380001534,157.83277829998406,m,0.6012459000339732,None,,,Subject_06,001,2025-11-24_01h14.09.153,Semantic priming with gender association,,2025.1.1,60.34431257309445,2025-11-24 01h14.27.507731 +0530,
Blacksmith,masculine,m9.png,male,60,6,1,m,0.6351831000065431,None,1,6,60,16,157.8786400000099,,,,,,,,,157.87116059998516,157.8786400000099,158.33273150003515,158.38298540003598,159.33445470000152,159.33445470000152,159.33445470000152,159.98596469999757,m,0.6351831000065431,None,,,Subject_06,001,2025-11-24_01h14.09.153,Semantic priming with gender association,,2025.1.1,60.34431257309445,2025-11-24 01h14.27.507731 +0530,
Airshostess,feminine,m6.jpg,male,61,7,1,m,1.3155076000257395,None,1,7,61,30,160.00208080001175,,,,,,,,,159.99536480003735,160.00208080001175,160.48542250000173,160.5021771999891,161.48645199998282,161.48645199998282,161.48645199998282,162.80494070000714,m,1.3155076000257395,None,,,Subject_06,001,2025-11-24_01h14.09.153,Semantic priming with gender association,,2025.1.1,60.34431257309445,2025-11-24 01h14.27.507731 +0530,
Hunter,masculine,m4.jpg,male,62,8,1,m,0.6663886000169441,None,1,8,62,6,162.8209875000175,,,,,,,,,162.8151703000185,162.8209875000175,163.30563100002473,163.32326159998775,164.30651369999396,164.30651369999396,164.30651369999396,164.97438259999035,m,0.6663886000169441,None,,,Subject_06,001,2025-11-24_01h14.09.153,Semantic priming with gender association,,2025.1.1,60.34431257309445,2025-11-24 01h14.27.507731 +0530,
Doctor,masculine,f7.jpg,female,63,9,1,f,1.0202471999800764,None,1,9,63,13,164.990508900024,,,,,,,,,164.9816764999996,164.990508900024,165.47417589998804,165.49040160002187,166.4753001999925,166.4753001999925,166.4753001999925,167.5101941000321,f,1.0202471999800764,None,,,Subject_06,001,2025-11-24_01h14.09.153,Semantic priming with gender association,,2025.1.1,60.34431257309445,2025-11-24 01h14.27.507731 +0530,
Librarian,feminine,f5.jpeg,female,64,10,1,f,1.2578898000065237,None,1,10,64,29,167.52663520001806,,,,,,,,,167.51474210002925,167.52663520001806,168.01020070002414,168.02695480000693,169.01185930002248,169.01185930002248,169.01185930002248,170.27995050000027,f,1.2578898000065237,None,,,Subject_06,001,2025-11-24_01h14.09.153,Semantic priming with gender association,,2025.1.1,60.34431257309445,2025-11-24 01h14.27.507731 +0530,
Author,neutral,f1.jpg,female,65,11,1,f,0.8434991000103764,None,1,11,65,41,170.29629989998648,,,,,,,,,170.28703140001744,170.29629989998648,170.7798521000077,170.79653590003727,171.7814531000331,171.7814531000331,171.7814531000331,172.63214669999434,f,0.8434991000103764,None,,,Subject_06,001,2025-11-24_01h14.09.153,Semantic priming with gender association,,2025.1.1,60.34431257309445,2025-11-24 01h14.27.507731 +0530,
Democrat,neutral,m4.jpg,male,66,12,1,m,2.6168188999872655,None,1,12,66,46,172.64925720001338,,,,,,,,,172.6430626999936,172.64925720001338,173.1329064000165,173.1489503000048,174.13391989999218,174.13391989999218,174.13391989999218,176.75422180001624,m,2.6168188999872655,None,,,Subject_06,001,2025-11-24_01h14.09.153,Semantic priming with gender association,,2025.1.1,60.34431257309445,2025-11-24 01h14.27.507731 +0530,
Lawyer,masculine,m5.jpeg,male,67,13,1,m,0.947370600013528,None,1,13,67,8,176.76962969999295,,,,,,,,,176.7587320000166,176.76962969999295,177.2540192999877,177.2705605000374,178.25509920000331,178.25509920000331,178.25509920000331,179.2062251000316,m,0.947370600013528,None,,,Subject_06,001,2025-11-24_01h14.09.153,Semantic priming with gender association,,2025.1.1,60.34431257309445,2025-11-24 01h14.27.507731 +0530,
Nanny,feminine,f9.jpg,female,68,14,1,f,0.46319790004054084,None,1,14,68,37,179.22243940003682,,,,,,,,,179.21750080003403,179.22243940003682,179.70631650002906,179.72307780000847,180.7081125000259,180.7081125000259,180.7081125000259,181.17531259998213,f,0.46319790004054084,None,,,Subject_06,001,2025-11-24_01h14.09.153,Semantic priming with gender association,,2025.1.1,60.34431257309445,2025-11-24 01h14.27.507731 +0530,
Secretary,feminine,f4.jpg,female,69,15,1,f,0.7926548999967054,None,1,15,69,27,181.19166800001403,,,,,,,,,181.18683970003622,181.19166800001403,181.6753722000285,181.6919972000178,182.6764506000327,182.6764506000327,182.6764506000327,183.47802570002386,f,0.7926548999967054,None,,,Subject_06,001,2025-11-24_01h14.09.153,Semantic priming with gender association,,2025.1.1,60.34431257309445,2025-11-24 01h14.27.507731 +0530,
Doctor,masculine,m7.jpg,male,70,16,1,m,0.4299767999909818,None,1,16,70,12,183.49473740003305,,,,,,,,,183.4900178000098,183.49473740003305,183.97789789998205,183.99443110002903,184.97881689999485,184.97881689999485,184.97881689999485,185.41333350003697,m,0.4299767999909818,None,,,Subject_06,001,2025-11-24_01h14.09.153,Semantic priming with gender association,,2025.1.1,60.34431257309445,2025-11-24 01h14.27.507731 +0530,
Prostitute,feminine,f8.jpeg,female,71,17,1,f,0.9578629999887198,None,1,17,71,35,185.43010180001147,,,,,,,,,185.42579320003279,185.43010180001147,185.9146339999861,185.930683100014,186.91449729999295,186.91449729999295,186.91449729999295,187.8828785000369,f,0.9578629999887198,None,,,Subject_06,001,2025-11-24_01h14.09.153,Semantic priming with gender association,,2025.1.1,60.34431257309445,2025-11-24 01h14.27.507731 +0530,
Republican,neutral,f5.jpeg,female,72,18,1,f,0.6508622000110336,None,1,18,72,49,187.8987259999849,,,,,,,,,187.88897369999904,187.8987259999849,188.38344420003705,188.4003936999943,189.3841605000198,189.3841605000198,189.3841605000198,190.05186280002818,f,0.6508622000110336,None,,,Subject_06,001,2025-11-24_01h14.09.153,Semantic priming with gender association,,2025.1.1,60.34431257309445,2025-11-24 01h14.27.507731 +0530,
Interpreter,neutral,f6.jpg,female,73,19,1,f,0.4987908999901265,None,1,19,73,51,190.06801849999465,,,,,,,,,190.06290790002095,190.06801849999465,190.55197259999113,190.56889110000338,191.55283430003328,191.55283430003328,191.55283430003328,192.05384190002223,f,0.4987908999901265,None,,,Subject_06,001,2025-11-24_01h14.09.153,Semantic priming with gender association,,2025.1.1,60.34431257309445,2025-11-24 01h14.27.507731 +0530,
Republican,neutral,m5.jpeg,male,74,20,1,f,1.2205775000038557,None,1,20,74,48,192.0701870000339,,,,,,,,,192.0594517000136,192.0701870000339,192.55365529999835,192.57052810001187,193.5545235000318,193.5545235000318,193.5545235000318,194.79029939998873,f,1.2205775000038557,None,,,Subject_06,001,2025-11-24_01h14.09.153,Semantic priming with gender association,,2025.1.1,60.34431257309445,2025-11-24 01h14.27.507731 +0530,
Driver,masculine,m6.jpg,male,75,21,1,f,1.8102659999858588,None,1,21,75,10,194.80550519999815,,,,,,,,,194.79949699999997,194.80550519999815,195.28988200001186,195.30718310002703,196.2922073000227,196.2922073000227,196.2922073000227,198.11066360003315,f,1.8102659999858588,None,,,Subject_06,001,2025-11-24_01h14.09.153,Semantic priming with gender association,,2025.1.1,60.34431257309445,2025-11-24 01h14.27.507731 +0530,
Nurse,feminine,f3.jpg,female,76,22,1,f,0.8739182999706827,None,1,22,76,25,198.1587234000326,,,,,,,,,198.14890800003195,198.1587234000326,198.61042159999488,198.66080630000215,199.61182420002297,199.61182420002297,199.61182420002297,200.4965476000216,f,0.8739182999706827,None,,,Subject_06,001,2025-11-24_01h14.09.153,Semantic priming with gender association,,2025.1.1,60.34431257309445,2025-11-24 01h14.27.507731 +0530,
Babysitter,feminine,f1.jpg,female,77,23,1,f,0.6602267000125721,None,1,23,77,21,200.51271159999305,,,,,,,,,200.50375680002617,200.51271159999305,200.99629239999922,201.01300480001373,201.99826690001646,201.99826690001646,201.99826690001646,202.66601520002587,f,0.6602267000125721,None,,,Subject_06,001,2025-11-24_01h14.09.153,Semantic priming with gender association,,2025.1.1,60.34431257309445,2025-11-24 01h14.27.507731 +0530,
Nurse,feminine,m3.jpg,male,78,24,1,m,0.6383521999814548,None,1,24,78,24,202.6821203000145,,,,,,,,,202.67714490002254,202.6821203000145,203.1654767,203.18232020002324,204.16687479999382,204.16687479999382,204.16687479999382,204.81766679999419,m,0.6383521999814548,None,,,Subject_06,001,2025-11-24_01h14.09.153,Semantic priming with gender association,,2025.1.1,60.34431257309445,2025-11-24 01h14.27.507731 +0530,
Artist,neutral,f10.jpg,female,79,25,1,f,0.5972075000172481,None,1,25,79,39,204.8352992000291,,,,,,,,,204.8305185000063,204.8352992000291,205.31756009999663,205.35116800002288,206.31859670003178,206.31859670003178,206.31859670003178,206.92019680002704,f,0.5972075000172481,None,,,Subject_06,001,2025-11-24_01h14.09.153,Semantic priming with gender association,,2025.1.1,60.34431257309445,2025-11-24 01h14.27.507731 +0530,
Driver,masculine,f6.jpg,female,80,26,1,f,0.5434307999676093,None,1,26,80,11,206.93768700002693,,,,,,,,,206.93302629998652,206.93768700002693,207.42009040003177,207.43677229998866,208.42126730002929,208.42126730002929,208.42126730002929,208.97224139998434,f,0.5434307999676093,None,,,Subject_06,001,2025-11-24_01h14.09.153,Semantic priming with gender association,,2025.1.1,60.34431257309445,2025-11-24 01h14.27.507731 +0530,
Artist,neutral,m10.jpg,male,81,27,1,m,0.4870215999544598,None,1,27,81,38,209.01124409999466,,,,,,,,,209.00433219998376,209.01124409999466,209.4722938000341,209.52262160001555,210.47415239998372,210.47415239998372,210.47415239998372,210.9752034000121,m,0.4870215999544598,None,,,Subject_06,001,2025-11-24_01h14.09.153,Semantic priming with gender association,,2025.1.1,60.34431257309445,2025-11-24 01h14.27.507731 +0530,
Nanny,feminine,m9.png,male,82,28,1,m,0.5400873000035062,None,1,28,82,36,211.01982500002487,,,,,,,,,211.01255899999524,211.01982500002487,211.47477020003134,211.52436640002998,212.47555610002019,212.47555610002019,212.47555610002019,213.02707429998554,m,0.5400873000035062,None,,,Subject_06,001,2025-11-24_01h14.09.153,Semantic priming with gender association,,2025.1.1,60.34431257309445,2025-11-24 01h14.27.507731 +0530,
Student,neutral,m2.jpg,male,83,29,1,m,0.7823627999750897,None,1,29,83,42,213.04332390002673,,,,,,,,,213.03778940002667,213.04332390002673,213.5271947000292,213.5436023999937,214.52813250001054,214.52813250001054,214.52813250001054,215.31233789998805,m,0.7823627999750897,None,,,Subject_06,001,2025-11-24_01h14.09.153,Semantic priming with gender association,,2025.1.1,60.34431257309445,2025-11-24 01h14.27.507731 +0530,
Ballerina,feminine,f10.jpg,female,84,30,1,f,0.45406329998513684,None,1,30,84,19,215.32974479999393,,,,,,,,,215.3247585000354,215.32974479999393,215.81335290003335,215.83002420002595,216.81439980003051,216.81439980003051,216.81439980003051,217.28165419999277,f,0.45406329998513684,None,,,Subject_06,001,2025-11-24_01h14.09.153,Semantic priming with gender association,,2025.1.1,60.34431257309445,2025-11-24 01h14.27.507731 +0530,
Homemaker,feminine,m2.jpg,male,85,31,1,m,0.6607585999881849,None,1,31,85,22,217.29780270002084,,,,,,,,,217.29203870001948,217.29780270002084,217.78158619999886,217.79824360000202,218.78252910001902,218.78252910001902,218.78252910001902,219.45056450000266,m,0.6607585999881849,None,,,Subject_06,001,2025-11-24_01h14.09.153,Semantic priming with gender association,,2025.1.1,60.34431257309445,2025-11-24 01h14.27.507731 +0530,
Librarian,feminine,m5.jpeg,male,86,32,1,m,0.8024897999712266,None,1,32,86,28,219.46664920001058,,,,,,,,,219.45509050000692,219.46664920001058,219.95074070000555,219.96698189998278,220.95224589999998,220.95224589999998,220.95224589999998,221.76988630002597,m,0.8024897999712266,None,,,Subject_06,001,2025-11-24_01h14.09.153,Semantic priming with gender association,,2025.1.1,60.34431257309445,2025-11-24 01h14.27.507731 +0530,
Blacksmith,masculine,f9.jpg,female,87,33,1,f,0.5397556999814697,None,1,33,87,17,221.78610389999812,,,,,,,,,221.77925429999596,221.78610389999812,222.27090130001307,222.28691000002436,223.2731450999854,223.2731450999854,223.2731450999854,223.8219100999995,f,0.5397556999814697,None,,,Subject_06,001,2025-11-24_01h14.09.153,Semantic priming with gender association,,2025.1.1,60.34431257309445,2025-11-24 01h14.27.507731 +0530,
Homemaker,feminine,f2.jpeg,female,88,34,1,m,0.9262019999441691,None,1,34,88,23,223.83829460002016,,,,,,,,,223.82750469999155,223.83829460002016,224.32199570001103,224.3387773000286,225.323291000037,225.323291000037,225.323291000037,226.25810030003777,m,0.9262019999441691,None,,,Subject_06,001,2025-11-24_01h14.09.153,Semantic priming with gender association,,2025.1.1,60.34431257309445,2025-11-24 01h14.27.507731 +0530,
Prostitute,feminine,m8.jpg,male,89,35,1,m,1.3098125999676995,None,1,35,89,34,226.2745412000222,,,,,,,,,226.26400830002967,226.2745412000222,226.75813319999725,226.7747919000103,227.75914899999043,227.75914899999043,227.75914899999043,229.0782492000144,m,1.3098125999676995,None,,,Subject_06,001,2025-11-24_01h14.09.153,Semantic priming with gender association,,2025.1.1,60.34431257309445,2025-11-24 01h14.27.507731 +0530,
Reporter,neutral,m3.jpg,male,90,36,1,f,1.1024528000270948,None,1,36,90,44,229.09555189998355,,,,,,,,,229.09073830000125,229.09555189998355,229.57828910002718,229.5949706999818,230.57914159999928,230.57914159999928,230.57914159999928,231.6969409000012,f,1.1024528000270948,None,,,Subject_06,001,2025-11-24_01h14.09.153,Semantic priming with gender association,,2025.1.1,60.34431257309445,2025-11-24 01h14.27.507731 +0530,
Teacher,feminine,m7.jpg,male,91,37,1,m,1.0057566000032239,None,1,37,91,32,231.71331540000392,,,,,,,,,231.70724530000007,231.71331540000392,232.19697210000595,232.21365960000549,233.19907680002507,233.19907680002507,233.19907680002507,234.2171422999818,m,1.0057566000032239,None,,,Subject_06,001,2025-11-24_01h14.09.153,Semantic priming with gender association,,2025.1.1,60.34431257309445,2025-11-24 01h14.27.507731 +0530,
Babysitter,feminine,m1.jpg,male,92,38,1,m,1.0123811999801546,None,1,38,92,20,234.23315179999918,,,,,,,,,234.2254452999914,234.23315179999918,234.71677080000518,234.73371200001566,235.71812969999155,235.71812969999155,235.71812969999155,236.73636650003027,m,1.0123811999801546,None,,,Subject_06,001,2025-11-24_01h14.09.153,Semantic priming with gender association,,2025.1.1,60.34431257309445,2025-11-24 01h14.27.507731 +0530,
Baker,neutral,m7.jpg,male,93,39,1,m,0.4759663000004366,None,1,39,93,52,236.75324490002822,,,,,,,,,236.74834839999676,236.75324490002822,237.23709950002376,237.253807400004,238.23818590003066,238.23818590003066,238.23818590003066,238.72205149999354,m,0.4759663000004366,None,,,Subject_06,001,2025-11-24_01h14.09.153,Semantic priming with gender association,,2025.1.1,60.34431257309445,2025-11-24 01h14.27.507731 +0530,
Ballerina,feminine,m10.jpg,male,94,40,1,m,0.47970640001585707,None,1,40,94,18,238.7589977000025,,,,,,,,,238.7525469000102,238.7589977000025,239.22151470003882,239.27169530000538,240.2228603999829,240.2228603999829,240.2228603999829,240.70703470002627,m,0.47970640001585707,None,,,Subject_06,001,2025-11-24_01h14.09.153,Semantic priming with gender association,,2025.1.1,60.34431257309445,2025-11-24 01h14.27.507731 +0530,
Reporter,neutral,f3.jpg,female,95,41,1,f,0.6784199000103399,None,1,41,95,45,240.75405699998373,,,,,,,,,240.7428646000335,240.75405699998373,241.20701870002085,241.25732109998353,242.20912620000308,242.20912620000308,242.20912620000308,242.89267430000473,f,0.6784199000103399,None,,,Subject_06,001,2025-11-24_01h14.09.153,Semantic priming with gender association,,2025.1.1,60.34431257309445,2025-11-24 01h14.27.507731 +0530,
Banker,masculine,m2.jpg,male,96,42,1,f,1.369038900011219,None,1,42,96,2,242.91091310000047,,,,,,,,,242.90578700002516,242.91091310000047,243.3929470999865,243.42599980003433,244.3942288000253,244.3942288000253,244.3942288000253,245.77962759998627,f,1.369038900011219,None,,,Subject_06,001,2025-11-24_01h14.09.153,Semantic priming with gender association,,2025.1.1,60.34431257309445,2025-11-24 01h14.27.507731 +0530,
Engineer,masculine,m3.jpg,male,97,43,1,m,0.6978366000112146,None,1,43,97,4,245.7960946999956,,,,,,,,,245.79169390001334,245.7960946999956,246.27979840000626,246.29648389999056,247.28101060003974,247.28101060003974,247.28101060003974,247.98178189998725,m,0.6978366000112146,None,,,Subject_06,001,2025-11-24_01h14.09.153,Semantic priming with gender association,,2025.1.1,60.34431257309445,2025-11-24 01h14.27.507731 +0530,
Banker,masculine,f2.jpeg,female,98,44,1,f,0.6895108000026084,None,1,44,98,3,247.99814370000968,,,,,,,,,247.98762390000047,247.99814370000968,248.481796499982,248.49846460000845,249.48313469998538,249.48313469998538,249.48313469998538,250.18423780001467,f,0.6895108000026084,None,,,Subject_06,001,2025-11-24_01h14.09.153,Semantic priming with gender association,,2025.1.1,60.34431257309445,2025-11-24 01h14.27.507731 +0530,
Author,neutral,m1.jpg,male,99,45,1,m,0.8745362000190653,None,1,45,99,40,250.20038230001228,,,,,,,,,250.1928271999932,250.20038230001228,250.6840499000391,250.70075620000716,251.68615960003808,251.68615960003808,251.68615960003808,252.57013639999786,m,0.8745362000190653,None,,,Subject_06,001,2025-11-24_01h14.09.153,Semantic priming with gender association,,2025.1.1,60.34431257309445,2025-11-24 01h14.27.507731 +0530,
Mechanic,masculine,m1.jpg,male,100,46,1,m,0.5447897000121884,None,1,46,100,0,252.58644310000818,,,,,,,,,252.5805992000387,252.58644310000818,253.07089610002004,253.08659640001133,254.0724863000214,254.0724863000214,254.0724863000214,254.62243520002812,m,0.5447897000121884,None,,,Subject_06,001,2025-11-24_01h14.09.153,Semantic priming with gender association,,2025.1.1,60.34431257309445,2025-11-24 01h14.27.507731 +0530,
Interpreter,neutral,m6.jpg,male,101,47,1,m,0.5480778000201099,None,1,47,101,50,254.63842179998755,,,,,,,,,254.63229550002143,254.63842179998755,255.12270760000683,255.13957709999522,256.12357070000144,256.12357070000144,256.12357070000144,256.67478629999096,m,0.5480778000201099,None,,,Subject_06,001,2025-11-24_01h14.09.153,Semantic priming with gender association,,2025.1.1,60.34431257309445,2025-11-24 01h14.27.507731 +0530,
Pilot,masculine,f8.jpeg,female,102,48,1,f,0.806344699987676,None,1,48,102,15,256.6914900999982,,,,,,,,,256.6834284000215,256.6914900999982,257.1748849999858,257.1914076000103,258.17721970001,258.17721970001,258.17721970001,258.9948093999992,f,0.806344699987676,None,,,Subject_06,001,2025-11-24_01h14.09.153,Semantic priming with gender association,,2025.1.1,60.34431257309445,2025-11-24 01h14.27.507731 +0530,
Airshostess,feminine,f6.jpg,female,103,49,1,f,1.0296562999719754,None,1,49,103,31,259.0099348000367,,,,,,,,,259.00293640000746,259.0099348000367,259.49419689999195,259.5107969000237,260.49541030003456,260.49541030003456,260.49541030003456,261.5302065000287,f,1.0296562999719754,None,,,Subject_06,001,2025-11-24_01h14.09.153,Semantic priming with gender association,,2025.1.1,60.34431257309445,2025-11-24 01h14.27.507731 +0530,
Hunter,masculine,f4.jpg,female,104,50,1,f,4.300363600021228,None,1,50,104,7,261.546366900031,,,,,,,,,261.53987239999697,261.546366900031,262.030348100001,262.04708859999664,263.0314066000283,263.0314066000283,263.0314066000283,267.3366951000062,f,4.300363600021228,None,,,Subject_06,001,2025-11-24_01h14.09.153,Semantic priming with gender association,,2025.1.1,60.34431257309445,2025-11-24 01h14.27.507731 +0530,
Mechanic,masculine,f1.jpg,female,105,51,1,f,0.5277666000183672,None,1,51,105,1,267.3525656000129,,,,,,,,,267.34227750002174,267.3525656000129,267.83630110003287,267.8530888000387,268.8375587000046,268.8375587000046,268.8375587000046,269.3720476999879,f,0.5277666000183672,None,,,Subject_06,001,2025-11-24_01h14.09.153,Semantic priming with gender association,,2025.1.1,60.34431257309445,2025-11-24 01h14.27.507731 +0530,
Teacher,feminine,f7.jpg,female,106,52,1,f,0.512597499997355,None,1,52,106,33,269.3881741000223,,,,,,,,,269.3779665000038,269.3881741000223,269.87164600001415,269.8884957000264,270.87340720003704,270.87340720003704,270.87340720003704,271.39137830003165,f,0.512597499997355,None,,,Subject_06,001,2025-11-24_01h14.09.153,Semantic priming with gender association,,2025.1.1,60.34431257309445,2025-11-24 01h14.27.507731 +0530,
Democrat,neutral,f4.jpg,female,107,53,1,f,0.5540830999962054,None,1,53,107,47,271.4075429000077,,,,,,,,,271.39986140001565,271.4075429000077,271.89104190003127,271.9076968000154,272.8922177000204,272.8922177000204,272.8922177000204,273.4598515999969,f,0.5540830999962054,None,,,Subject_06,001,2025-11-24_01h14.09.153,Semantic priming with gender association,,2025.1.1,60.34431257309445,2025-11-24 01h14.27.507731 +0530,
,,,,,,,,,,,,,,,,,,,,,,,,,,,,,,,,,,273.45997279998846,273.4761053000111,,,,,,,,,
